{"resourceType":"Bundle","id":"8559006F-D1EC-4095-9FFB-E8D45C3397A2","meta":{"profile":["http://fhir.nhs.net/StructureDefinition/gpconnect-searchset-bundle-1-0"]},"type":"searchset","entry":[{"resource":{"resourceType":"Patient","meta":{"profile":["http://fhir.nhs.net/StructureDefinition/gpconnect-patient-1-0"]},"identifier":[{"system":"http://fhir.nhs.net/Id/nhs-number","value":"9900002831"}],"name":[{"use":"usual","family":["Taylor"],"given":["Sally"],"prefix":["Mrs"]}],"birthDate":"1947-06-09","address":[{"use":"home","type":"both","line":["42, Grove Street"],"city":"Overtown","district":"West Yorkshire","postalCode":"LS21 1PF"}]}},{"resource":{"resourceType":"Composition","id":"8F9B4C4D-1D48-45EB-9AF7-B47E76BF2687","meta":{"profile":["http://fhir.nhs.net/StructureDefinition/gpconnect-carerecord-composition-1-0"]},"text":{"status":"generated","div":"<div xmlns=\"http://www.w3.org/1999/xhtml\"><p style=\"font-size:20px\"><b>Patient Care Record</b></p><table width=\"100%\" border=\"1\"><thead><tr><td colspan=\"5\"><b>Meta</b></td></tr></thead><tbody align=\"left\"><tr style=\"bold\"><td style=\"width:20%\"><b>Id</b></td><td style=\"width:20%\"><b>Date</b></td><td style=\"width:20%\"><b>Type</b></td><td style=\"width:20%\"><b>Status</b></td><td style=\"width:20%\"><b>Confidentiality</b></td></tr><tr><td style=\"width:20%\">43FB6D24-10AE-4225-999A-C1CF8AA5D69E</td><td style=\"width:20%\">11 July 2015 10:11:15 AM</td><td style=\"width:20%\">Care Record</td><td style=\"width:20%\">Final</td><td style=\"width:20%\">Very Restricted</td></tr></tbody></table><br /><table width=\"100%\" border=\"1\"><thead><tr><td colspan=\"2\"><b>Author/Custodian</b></td></tr></thead><tbody align=\"left\"><tr><td style=\"width:50%\"><b>Author</b></td><td style=\"width:50%\"><b>Custodian</b></td></tr><tr><td style=\"width:50%\">Dr Tom Wood</td><td style=\"width:50%\">Wood Town GP Practice</td></tr></tbody></table><br /></div>"},"date":"2015-07-11T10:11:15+00:00","type":{"coding":[{"system":"http://snomed.info/sct","code":"425173008","display":"record extract (record artifact)"}],"text":"record extract (record artifact)"},"class":{"coding":[{"system":"http://snomed.info/sct","code":"700232004","display":"general medical service (qualifier value)"}],"text":"general medical service (qualifier value)"},"title":"Patient Record","status":"final","confidentiality":"V","subject":{"reference":"Patient/1A6E1B1C-6340-4663-926C-9CD1306EAAF8","display":"Sally Taylor"},"author":[{"reference":"Practitioner/5BF84050-8308-4271-BBC6-F296801714CE","display":"Dr Tom Wood"}],"custodian":{"reference":"Organization/7C0356E6-7AB9-46E7-B5F9-5189D606F155","display":"Wood Town GP practice"},"section":[{"title":"Patient Details","code":{"coding":[{"system":"http://fhir.nhs.net/ValueSet/gpconnect-record-section-1-0","code":"PAT","display":"Patient Details"}]},"text":{"status":"generated","div":"<div xmlns=\"http://www.w3.org/1999/xhtml\"><table width=\"100%\" border=\"1\"><thead><tr><td colspan=\"4\"><b>Patient details</b></td></tr></thead><tbody align=\"left\" valign=\"top\"><tr><td style=\"width:25%\"><b>NHS Number</b></td><td style=\"width:25%\"><b>Patient Name</b></td><td style=\"width:25%\"><b>Patient Date of Birth</b></td><td style=\"width:25%\"><b>Address</b></td></tr><tr><td style=\"width:25%\">9900002831</td><td style=\"width:25%\">Mrs Sally Taylor</td><td style=\"width:25%\">1947-06-09</td><td style=\"width:25%\">42 Grove Street<br />Overtown<br />West Yorkshire<br />LS21 1PF</td></tr><tr><td colspan=\"4\"><b>Next of Kin</b></td></tr><tr><td style=\"width:25%\"><b>Name</b></td><td style=\"width:25%\"><b>Address</b></td><td style=\"width:25%\"><b>Telephone contact</b></td><td style=\"width:25%\"><b>Relationship</b></td></tr><tr><td style=\"width:25%\">Miss Ann Taylor</td><td style=\"width:25%\">120 Grove Street<br />Overtown<br />West Yorkshire<br />LS21 1PT</td><td style=\"width:25%\">0113-245-0909</td><td style=\"width:25%\">Daughter</td></tr></tbody></table><br /></div>"}},{"title":"Key Indicators (Flags)","code":{"coding":[{"system":"http://fhir.nhs.net/ValueSet/gpconnect-record-section-1-0","code":"KEY","display":"Key Indicators (Flags)"}]},"text":{"status":"generated","div":"<div xmlns=\"http://www.w3.org/1999/xhtml\"><table width=\"100%\" border=\"1\"><thead><tr><td colspan=\"5\"><p><b>Key Indicators (Flags)</b>: </p></td></tr></thead><tbody align=\"left\"><tr><td style=\"width:25%\"><b>Category</b></td><td style=\"width:25%\"><b>Detail</b></td><td style=\"width:25%\"><b>Source </b></td><td style=\"width:25%\"><b>Location</b></td></tr><tr><td style=\"width:25%\">Flag</td><td style=\"width:25%\">End of life care record exists</td><td style=\"width:25%\">GP Practitioner</td><td style=\"width:25%\">GP Record</td></tr></tbody></table><br /></div>"},"entry":[{"reference":"Flag/5146B4A3-43A8-48FF-B5D4-CC64B38DBB8C"}]},{"title":"Allergies and Sensitivities","code":{"coding":[{"system":"http://fhir.nhs.net/ValueSet/gpconnect-record-section-1-0","code":"ALL","display":"Allergies and Sensitivities"}]},"text":{"status":"generated","div":"<div xmlns=\"http://www.w3.org/1999/xhtml\"><table width=\"100%\" border=\"1\"><thead><tr><td colspan=\"5\"><p><b>Allergies and Sensitivities</b>: </p></td></tr></thead><tbody align=\"left\"><tr><td style=\"width:20%\"><b>Allergy</b></td><td style=\"width:20%\"><b>Manifestation</b></td><td style=\"width:20%\"><b>Severity</b></td><td style=\"width:20%\"><b>Onset</b></td><td style=\"width:20%\"><b>Last Occurence</b></td></tr><tr><td style=\"width:20%\">Allergy to penicillin (disorder)</td><td style=\"width:20%\">Difficulty breathing (finding)</td><td style=\"width:20%\">Moderate</td><td style=\"width:20%\">10-Jan-2015</td><td style=\"width:20%\">10-Jan-2015</td></tr></tbody></table><br /></div>"},"entry":[{"reference":"AllergyIntolerance/0D0BA398-2BE9-4CA8-9184-C2C0ECADCEEA","display":"Allergy to penicillin (disorder)"}]},{"title":"Summary","code":{"coding":[{"system":"http://fhir.nhs.net/ValueSet/gpconnect-record-section-1-0","code":"SUM","display":"Summary"}]},"text":{"status":"generated","div":"<div xmlns=\"http://www.w3.org/1999/xhtml\"><table width=\"100%\" border=\"1\"><thead><tr><td><p><b>Summary:</b><br /><i>Summary of the patient's current problems, medications, allergies and recent consultations and investigations.<br />  Details can be seen in the section headers below.</i></p></td></tr></thead><tbody align=\"left\"><tr><td><ul><li><b>Reminders/Alerts:</b><br /><i>None</i></li><li><b>Current Problems:</b><br /><i>Aphasia (finding).<br />\r\n\t\t\t\t\t\t\tDysphagia (disorder).<br />\r\n\t\t\t\t\t\t\tPatients swallowing considered unsafe and on the advice of SALT team non oral feeding initiated.<br />\r\n\t\t\t\t\t\t\tPatient will require ongoing rehab and physiotherapy.<br /></i></li><li><b>Current Medication:</b><br /><i>Aspirin\r\n\t\t\t\t\t\t\t\t\t<br />\r\n\t\t\t\t\t\t\t\t\tNaproxen</i></li><li><b>Recalls:</b><br /><i>None</i></li><li><b>Current Allergies/Sensitivies:</b><br /><i>Allergy - Penicillin</i></li><li><b>Recent Encounters:</b><br /><i>Out-Patient - Consultation (procedure) - January<br />Admission - Medical consultation on hospital inpatient (procedure) - February</i></li><li><b>Recent Investigations (within the last 3 months):</b><br /><i>ECG\r\n\t\t\t\t\t\t\t\t\t<br />\r\n\t\t\t\t\t\t\t\t\tCT Scan</i></li></ul></td></tr></tbody></table><br /></div>"}},{"title":"Administrative Items","code":{"coding":[{"system":"http://fhir.nhs.net/ValueSet/gpconnect-record-section-1-0","code":"ADM","display":"Administrative Items"}]},"text":{"status":"generated","div":"<div xmlns=\"http://www.w3.org/1999/xhtml\"><table width=\"100%\" border=\"1\"><thead><tr><td><p><b>Administrative Items:</b><br /><i>Details can be seen in the section headers below.</i></p></td></tr></thead><tbody align=\"left\"><tr><td><ul><li><b>Did Not Attends:</b><br /><i>None</i></li></ul></td></tr></tbody></table><br /></div>"}},{"title":"Clinical Items","code":{"coding":[{"system":"http://fhir.nhs.net/ValueSet/gpconnect-record-section-1-0","code":"CLI","display":"Clinical Items"}]},"text":{"status":"generated","div":"<div xmlns=\"http://www.w3.org/1999/xhtml\"><table width=\"100%\" border=\"1\"><thead><tr><td><p><b>Clinical Items:</b><br /><i>Details can be seen in the section headers below.</i></p></td></tr></thead><tbody align=\"left\"><tr><td><ul><li><b>Diagnosis:</b><br /><i>Cerebrovascular accident (disorder)</i></li><li><b>Procedures:</b><br /><i>Percutaneous Endoscopic Gastrostomy (PEG) inserted\r\n\t\t\t\t\t\t\t\t\t<br />\r\n\t\t\t\t\t\t\t\t\tNail bed procedure (procedure) performed</i></li><li><b>Problems:</b><br /><i>\r\n\t\t\t\t\t\t\tAphasia (finding).<br />\r\n\t\t\t\t\t\t\tDysphagia (disorder).<br />\r\n\t\t\t\t\t\t\tLady previously admitted with a dense right sided weakness.<br />\r\n\t\t\t\t\t\t\tPatients swallowing considered unsafe and on the advice of SALT team non oral feeding initiated.<br />\r\n\t\t\t\t\t\t\tPatient will require ongoing rehab and physiotherapy.<br />\r\n\t\t\t\t\t\t\tBackground of metastatic breast cancer and atrial fibrillation.</i></li></ul></td></tr></tbody></table><br /></div>"}},{"title":"Encounters","code":{"coding":[{"system":"http://fhir.nhs.net/ValueSet/gpconnect-record-section-1-0","code":"ENC","display":"Encounters"}]},"text":{"status":"generated","div":"<div xmlns=\"http://www.w3.org/1999/xhtml\"><table width=\"100%\" border=\"1\"><thead><tr><td style=\"width:50%\" colspan=\"4\"><p><b>Encounters</b>: </p></td></tr></thead><tbody align=\"left\"><tr><td style=\"width:25%\"><b>Encounter</b></td><td style=\"width:25%\"><b>Location</b></td><td style=\"width:25%\"><b>Start Date</b></td><td style=\"width:25%\"><b>End Date</b></td></tr><tr><td style=\"width:25%\">Medical consultation on hospital inpatient (procedure)</td><td style=\"width:25%\">In-patient</td><td style=\"width:25%\">12-Feb-2015</td><td style=\"width:25%\">19-Feb-2015</td></tr><tr><td style=\"width:25%\">Consultation (procedure) </td><td style=\"width:25%\">Out-patient</td><td style=\"width:25%\">01-Jan-2015</td><td style=\"width:25%\">01-Jan-2015</td></tr></tbody></table><br /></div>"},"entry":[{"reference":"Encounter/61510A46-6F0D-4F11-83D4-6B6158387E69","display":"Consultation (procedure)"},{"reference":"Encounter/8F82E1BD-EC8B-46FA-98C9-DBEC9E462A5C","display":"Medical consultation on hospital inpatient (procedure)"}]},{"title":"Immunisations/Vaccinations","code":{"coding":[{"system":"http://fhir.nhs.net/ValueSet/gpconnect-record-section-1-0","code":"IMM","display":"Immunisations"}]},"text":{"status":"generated","div":"<div xmlns=\"http://www.w3.org/1999/xhtml\"><table width=\"100%\" border=\"1\"><thead><tr><td colspan=\"4\"><p><b>Immunisations/Vaccinations</b>: </p></td></tr></thead><tbody align=\"left\"><tr><td style=\"width:40%\"><b>Vaccine</b></td><td style=\"width:20%\"><b>Date</b></td><td style=\"width:20%\"><b>Status</b></td><td style=\"width:20%\"><b>Dose Sequence</b></td></tr><tr><td style=\"width:40%\">Rabies vaccine 0.25iu/0.1mL powder for injection single dose syringe (product)</td><td style=\"width:20%\">01-Mar-2016</td><td style=\"width:20%\">In progress</td><td style=\"width:20%\">1</td></tr><tr><td style=\"width:40%\">Rabies vaccine 0.25iu/0.1mL powder for injection single dose syringe (product)</td><td style=\"width:20%\">08-Mar-2016</td><td style=\"width:20%\">In progress</td><td style=\"width:20%\">2</td></tr></tbody></table><br /></div>"},"entry":[{"reference":"Immunisation/649E6D92-1083-48A5-AC88-C14D31B836ED","display":"Rabies vaccine 0.25iu/0.1mL powder for injection single dose syringe (product)"},{"reference":"Immunisation/8526805B-A894-4F10-A0C1-2B4C0BBC69FE","display":"Rabies vaccine 0.25iu/0.1mL powder for injection single dose syringe (product)"}]},{"title":"Investigations","code":{"coding":[{"system":"http://fhir.nhs.net/ValueSet/gpconnect-record-section-1-0","code":"INV","display":"Investigations"}]},"text":{"status":"generated","div":"<div xmlns=\"http://www.w3.org/1999/xhtml\"><table width=\"100%\" border=\"1\"><thead><tr><td colspan=\"4\"><p><b>Investigations</b>: </p></td></tr></thead><tbody align=\"left\"><tr><td style=\"width:50%\"><b>Investigation requested</b></td><td style=\"width:50%\"><b>Investigation results</b></td></tr><tr><td style=\"width:50%\">Computed tomography scan - whole body (procedure)</td><td style=\"width:50%\">Established Left MCA Territory infarct.</td></tr><tr><td style=\"width:50%\">Electrocardiographic monitoring (procedure)</td><td style=\"width:50%\">AF</td></tr></tbody></table><br /></div>"},"entry":[{"reference":"DiagnosticOrder/1E660D86-F64B-4747-AA48-1281F173B933","display":"Computed tomography scan - whole body (procedure)"},{"reference":"DiagnosticOrder/AB700305-92D8-4E25-94B4-5F7B9CBC9609","display":"Electrocardiographic monitoring (procedure)"}]},{"title":"Medications","code":{"coding":[{"system":"http://fhir.nhs.net/ValueSet/gpconnect-record-section-1-0","code":"MED","display":"Medications"}]},"text":{"status":"generated","div":"<div xmlns=\"http://www.w3.org/1999/xhtml\"><table width=\"100%\" border=\"1\"><thead><tr><td colspan=\"6\"><p><b>Medications</b>: </p></td></tr></thead><tbody align=\"left\"><tr><td style=\"width:20%\"><b>Name</b></td><td style=\"width:10%\"><b>Dose</b></td><td style=\"width:20%\"><b>Medication Frequency</b></td><td style=\"width:10%\"><b>Route</b></td><td style=\"width:20%\"><b>Medication Recommendations</b></td><td style=\"width:20%\"><b>Date Prescribed</b></td></tr><tr><td style=\"width:20%\">Naproxen 250mg tablet (product)</td><td style=\"width:10%\">250mg</td><td style=\"width:20%\">One daily</td><td style=\"width:10%\">oral</td><td style=\"width:20%\">continue</td><td style=\"width:20%\">1-Feb-2015</td></tr><tr><td style=\"width:20%\">Aspirin 75mg e/c tablet (product)</td><td style=\"width:10%\">75mg</td><td style=\"width:20%\">One daily</td><td style=\"width:10%\">oral</td><td style=\"width:20%\">continue</td><td style=\"width:20%\">14-Feb-2015</td></tr></tbody></table><br /></div>"},"entry":[{"reference":"Medication/9B74F00B-6C78-4F06-9E14-099799F37102E","display":"Naproxen 250mg tablet (product)"},{"reference":"MedicationOrder/DD4DE54A-9946-4BE9-855F-CE5F1269EFC6","display":"Prescription for Naproxen 250mg tablet (product)"},{"reference":"MedicationDispense/C9765922-B843-42D8-86CC-8F84BD74C465","display":"Dispense of Naproxen 250mg tablet (product)"},{"reference":"Medication/A426C6E9-3966-4EF7-B4D6-13A491584F2E","display":"Aspirin 75mg e/c tablet (product)"},{"reference":"MedicationOrder/235FCEC1-47EB-44C6-BCF6-624968299A88","display":"Prescription for Aspirin 75mg e/c tablet (product)"},{"reference":"MedicationDispense/6ADFD0CF-3DD1-4885-BDEA-5DE682A9FF6D","display":"Dispense of Aspirin 75mg e/c tablet (product)"},{"reference":"MedicationAdministration/14078934-2508-474F-A007-BA7188C499EB","display":"Medication Administration of Aspirin 75mg e/c tablet (product)"}]},{"title":"Observations","code":{"coding":[{"system":"http://fhir.nhs.net/ValueSet/gpconnect-record-section-1-0","code":"OBS","display":"Observations"}]},"text":{"status":"generated","div":"<div xmlns=\"http://www.w3.org/1999/xhtml\"><table width=\"100%\" border=\"1\"><thead><tr><td colspan=\"4\"><p><b>Observations</b>: </p></td></tr></thead><tbody align=\"left\"><tr><td colspan=\"4\"><b>Blood Pressure</b></td></tr><tr><td style=\"width:25%\"><b>Blood pressure systolic</b></td><td style=\"width:25%\"><b>Blood pressure diastolic</b></td><td style=\"width:25%\"><b>Body Site</b></td><td style=\"width:25%\"><b>Observation Date</b></td></tr><tr><td style=\"width:25%\">107 mm[Hg]</td><td style=\"width:25%\">60 mm [Hg]</td><td style=\"width:25%\">Right arm</td><td style=\"width:25%\">12-Feb-2015</td></tr></tbody></table><br /></div>"},"entry":[{"reference":"Observation/9DDAEE3D-E728-4559-8F52-90E371CA5594","display":"Blood pressure (observable entity)"}]},{"title":"Problems","code":{"coding":[{"system":"http://fhir.nhs.net/ValueSet/gpconnect-record-section-1-0","code":"PRB","display":"Problems"}]},"text":{"status":"generated","div":"<div xmlns=\"http://www.w3.org/1999/xhtml\"><table width=\"100%\" border=\"1\"><thead><tr><td colspan=\"2\"><p><b>Problems</b>: </p></td></tr></thead><tbody align=\"left\"><tr><td>Aphasia (finding).</td></tr><tr><td>Dysphagia (disorder).</td></tr><tr><td>Lady previously admitted with a dense right sided weakness.</td></tr><tr><td>Patients swallowing considered unsafe and on the advice of SALT team non oral feeding initiated.</td></tr><tr><td>Patient will require ongoing rehab and physiotherapy.</td></tr><tr><td>Background of metastatic breast cancer and atrial fibrillation.</td></tr></tbody></table><br /></div>"},"entry":[{"reference":"Condition/D7413A71-CBB4-4117-96BE-2EAE3B78AF3","display":"Aphasia (finding)"},{"reference":"Condition/60F8A093-791E-4110-9576-795735FDC405","display":"Dysphagia (disorder)"}]},{"title":"Referrals","code":{"coding":[{"system":"http://fhir.nhs.net/ValueSet/gpconnect-record-section-1-0","code":"REF","display":"Referral"}]},"text":{"status":"generated","div":"<div xmlns=\"http://www.w3.org/1999/xhtml\"><table width=\"100%\" border=\"1\"><thead><tr><td><p><b>Referrals:</b></p></td></tr></thead><tbody align=\"left\"><tr><td><ul><li><b>Referrals:</b><br /><i>None</i></li></ul></td></tr></tbody></table><br /></div>"}}]}},{"resource":{"resourceType":"Practitioner","id":"5BF84050-8308-4271-BBC6-F296801714CE","meta":{"profile":["http://fhir.nhs.net/StructureDefinition/gpconnect-practitioner-1-0"]},"identifier":[{"system":"http://fhir.nhs.net/Id/sds-user-id","value":"G12345678"},{"system":"http://fhir.nhs.net/Id/sds-role-profile-id","value":"PT1234"}],"name":{"family":["Wood"],"given":["Tom"],"prefix":["Dr."]},"practitionerRole":[{"managingOrganization":{"reference":"Organization/7C0356E6-7AB9-46E7-B5F9-5189D606F155"},"role":{"coding":[{"system":"http://fhir.nhs.net/ValueSet/sds-job-role-name-1-0","code":"R0260","display":"General Medical Practitioner"}]}}]}},{"resource":{"resourceType":"Organization","id":"7C0356E6-7AB9-46E7-B5F9-5189D606F155","meta":{"profile":["http://fhir.nhs.net/StructureDefinition/gpconnect-organization-1-0"]},"identifier":[{"system":"http://fhir.nhs.net/Id/ods-organization-code","value":"B86022"}],"name":"Wood Town GP practice"}},{"resource":{"resourceType":"AllergyIntolerance","id":"0D0BA398-2BE9-4CA8-9184-C2C0ECADCEEA","meta":{"profile":["http://fhir.nhs.net/StructureDefinition/gpconnect-allergyintolerance-1-0"]},"extension":[{"url":"http://fhir.nhs.net/StructureDefinition/extension-encounter-reference-1-0","valueReference":{"reference":"Encounter/FAE3CE51-DF19-4D8D-BABC-630261CFF7A6"}}],"identifier":[{"value":"C8EC110F-EE08-42AB-BC4C-F1CC7B32D520"}],"onset":"2015-01-10","recordedDate":"2015-01-10","recorder":{"reference":"Practitioner/30D59E6F-09CF-4FCD-8772-CFA020211B60","display":"Dr. Matt Smith"},"patient":{"reference":"Patient/1A6E1B1C-6340-4663-926C-9CD1306EAAF8","display":"Sally Taylor"},"substance":{"coding":[{"system":"http://snomed.info/sct","code":"91936005","display":"Allergy to penicillin (disorder)"}]},"status":"confirmed","lastOccurence":"2015-01-10","reaction":[{"manifestation":[{"coding":[{"system":"http://snomed.info/sct","code":"230145002","display":"Difficulty breathing (finding)"}]}],"onset":"2015-01-10","severity":"moderate"}]}},{"resource":{"resourceType":"Condition","id":"3599E6E6-5F95-4679-946B-8DDA0C579ACC","meta":{"profile":["http://fhir.nhs.net/StructureDefinition/gpconnect-diagnosis-condition-1-0"]},"identifier":[{"value":"F3BED5EA-715B-4053-8C71-82B3FED731A9"}],"patient":{"reference":"Patient/1A6E1B1C-6340-4663-926C-9CD1306EAAF8","display":"Sally Taylor"},"encounter":{"reference":"Encounter/8F82E1BD-EC8B-46FA-98C9-DBEC9E462A5C","display":"Medical consultation on hospital inpatient (procedure)"},"asserter":{"reference":"Practitioner/5BF84050-8308-4271-BBC6-F296801714CE","display":"Dr Tom Wood"},"dateRecorded":"2015-02-14","code":{"coding":[{"system":"http://snomed.info/sct","code":"230690007","display":"Cerebrovascular accident (disorder)"}]},"category":{"coding":[{"system":"http://fhir.nhs.net/ValueSet/gpconnect-condition-category-1-0","code":"DIA","display":"Diagnosis"}]},"verificationStatus":"confirmed"}},{"resource":{"resourceType":"Encounter","id":"8F82E1BD-EC8B-46FA-98C9-DBEC9E462A5C","meta":{"profile":["http://fhir.nhs.net/StructureDefinition/gpconnect-encounter-1-0"]},"identifier":[{"value":"6EF871D4-325F-4E47-8FBA-C704B9D17E9B"}],"status":"finished","class":"inpatient","type":[{"coding":[{"system":"http://snomed.info/sct","code":"24882007","display":"Medical consultation on hospital inpatient (procedure)"}]}],"patient":{"reference":"Patient/1A6E1B1C-6340-4663-926C-9CD1306EAAF8","display":"Sally Taylor"},"participant":[{"type":[{"coding":[{"system":"http://fhir.nhs.net/ValueSet/sds-job-role-name-1-0","code":"R0050","display":"Consultant"}]}]}],"period":{"start":"2015-02-12","end":"2015-02-19"},"location":[{"location":{"reference":"Location/41ED372D-15D5-4CB8-92D8-E797196371AF","display":"RR801"}}]}},{"resource":{"resourceType":"Encounter","id":"61510A46-6F0D-4F11-83D4-6B6158387E69","meta":{"profile":["http://fhir.nhs.net/StructureDefinition/gpconnect-encounter-1-0"]},"identifier":[{"value":"887A99F1-8CAE-4349-8045-7F8A9CDEDB1C"}],"status":"finished","type":[{"coding":[{"system":"http://snomed.info/sct","code":"11429006","display":"Consultation (procedure)"}]}],"patient":{"reference":"Patient/1A6E1B1C-6340-4663-926C-9CD1306EAAF8","display":"Sally Taylor"},"participant":[{"type":[{"coding":[{"system":"http://fhir.nhs.net/ValueSet/sds-job-role-name-1-0","code":"R0260","display":"General Medical Practitioner"}]}]}],"period":{"start":"2015-01-01","end":"2015-01-01"},"location":[{"location":{"reference":"Location/79B09EA0-0B50-4A54-8654-D1E8FBC0AF8B"}}]}},{"resource":{"resourceType":"Immunization","id":"BA00E169-08EB-48A0-9298-C7D576875CC1","meta":{"profile":["http://fhir.nhs.net/StructureDefinition/gpconnect-immunization-1-0"]},"identifier":[{"value":"649E6D92-1083-48A5-AC88-C14D31B836ED"}],"status":"in-progress","date":"2016-03-01","vaccineCode":{"coding":[{"system":"http://snomed.info/sct","code":"400331004","display":"Rabies vaccine 0.25iu/0.1mL powder for injection single dose syringe (product)"}]},"patient":{"reference":"Patient/1A6E1B1C-6340-4663-926C-9CD1306EAAF8","display":"Sally Taylor"},"wasNotGiven":false,"reported":false,"performer":{"reference":"Practitioner/649DE1D2-4938-4DA3-B377-E6F015F37EAF"},"encounter":{"reference":"Encounter/5EBCD865-7D33-42A7-82DC-C2203A5DE0DE"},"lotNumber":"63259874","expirationDate":"2020-01-01","site":{"coding":[{"system":"http://snomed.info/sct","code":"35259002","display":"Structure of deltoid muscle (body structure)"}]},"route":{"coding":[{"system":"http://snomed.info/sct","code":"285837007","display":"Injection into body site (procedure)"}]},"doseQuantity":{"value":0.1,"unit":"mL","system":"http://unitsofmeasure.org","code":"mL"},"vaccinationProtocol":[{"doseSequence":1,"targetDisease":[{"coding":[{"system":"http://snomed.info/sct","code":"14168008","display":"Rabies (disorder)"}]}],"doseStatus":{"coding":[{"system":"http://hl7.org/fhir/vaccination-protocol-dose-status","code":"count","display":"Counts"}]}}]}},{"resource":{"resourceType":"Immunization","id":"16CC23B7-1208-42A3-981C-A4169B49D927","meta":{"profile":["http://fhir.nhs.net/StructureDefinition/gpconnect-immunization-1-0"]},"identifier":[{"value":"8526805B-A894-4F10-A0C1-2B4C0BBC69FE"}],"status":"in-progress","date":"2016-03-08","vaccineCode":{"coding":[{"system":"http://snomed.info/sct","code":"400331004","display":"Rabies vaccine 0.25iu/0.1mL powder for injection single dose syringe (product)"}]},"patient":{"reference":"Patient/1A6E1B1C-6340-4663-926C-9CD1306EAAF8","display":"Sally Taylor"},"wasNotGiven":false,"reported":false,"performer":{"reference":"Practitioner/649DE1D2-4938-4DA3-B377-E6F015F37EAF"},"encounter":{"reference":"Encounter/19808184-874A-4F68-8D03-C17F33E08D19"},"lotNumber":"25987456","expirationDate":"2020-02-13","site":{"coding":[{"system":"http://snomed.info/sct","code":"35259002","display":"Structure of deltoid muscle (body structure)"}]},"route":{"coding":[{"system":"http://snomed.info/sct","code":"285837007","display":"Injection into body site (procedure)"}]},"doseQuantity":{"value":0.1,"unit":"mL","system":"http://unitsofmeasure.org","code":"mL"},"vaccinationProtocol":[{"doseSequence":2,"targetDisease":[{"coding":[{"system":"http://snomed.info/sct","code":"14168008","display":"Rabies (disorder)"}]}],"doseStatus":{"coding":[{"system":"http://hl7.org/fhir/vaccination-protocol-dose-status","code":"count","display":"Counts"}]}}]}},{"resource":{"resourceType":"DiagnosticOrder","id":"1E660D86-F64B-4747-AA48-1281F173B933","subject":{"reference":"Patient/1A6E1B1C-6340-4663-926C-9CD1306EAAF8","display":"Sally Taylor"},"orderer":{"reference":"Practitioner/5BF84050-8308-4271-BBC6-F296801714CE","display":"Dr Tom Wood"},"identifier":[{"value":"183DE1A2-C303-4639-A6F0-D4A98E0304D2"}],"encounter":{"reference":"Encounter/8F82E1BD-EC8B-46FA-98C9-DBEC9E462A5C","display":"Medical consultation on hospital inpatient (procedure)"},"status":"completed","priority":"urgent","item":[{"code":{"coding":[{"system":"http://snomed.info/sct","code":"169072007","display":"Computed tomography scan - whole body (procedure)"}]}}]}},{"resource":{"resourceType":"DiagnosticOrder","id":"AB700305-92D8-4E25-94B4-5F7B9CBC9609","subject":{"reference":"Patient/1A6E1B1C-6340-4663-926C-9CD1306EAAF8","display":"Sally Taylor"},"orderer":{"reference":"Practitioner/5BF84050-8308-4271-BBC6-F296801714CE","display":"Dr Tom Wood"},"identifier":[{"value":"183DE1A2-C303-4639-A6F0-D4A98E0304D2"}],"encounter":{"reference":"Encounter/8F82E1BD-EC8B-46FA-98C9-DBEC9E462A5C","display":"Medical consultation on hospital inpatient (procedure)"},"status":"completed","priority":"urgent","item":[{"code":{"coding":[{"system":"http://snomed.info/sct","code":"46825001","display":"Electrocardiographic monitoring (procedure)"}]}}]}},{"resource":{"resourceType":"Flag","id":"5146B4A3-43A8-48FF-B5D4-CC64B38DBB8C","meta":{"profile":["http://fhir.nhs.net/StructureDefinition/gpconnect-keyindicator-flag-1-0"]},"extension":[{"url":"http://fhir.nhs.net/StructureDefinition/extension-flag-information-location-1-0","valueString":"GP system"},{"url":"http://fhir.nhs.net/StructureDefinition/extension-flag-source-1-0","valueString":"GP Practitioner"}],"identifier":[{"value":"5A52A0BF-54CC-4616-A7FF-C6656CFF8B02"}],"category":{"coding":[{"system":"http://fhir.nhs.net/ValueSet/gpconnect-key-flags-category-1-0","code":"FLAG","display":"Flag"}]},"status":"active","subject":{"reference":"Patient/1A6E1B1C-6340-4663-926C-9CD1306EAAF8","display":"Sally Taylor"},"code":{"coding":[{"system":"http://fhir.nhs.net/ValueSet/gpconnect-key-flags-code-1-0","code":"EoLC","display":"End of life care record exists"}]}}},{"resource":{"resourceType":"Medication","id":"9B74F00B-6C78-4F06-9E14-099799F37102E","meta":{"profile":["http://fhir.nhs.net/StructureDefinition/gpconnect-medication-1-0"]},"code":{"coding":[{"system":"http://snomed.info/sct","code":"329806007","display":"Naproxen 250mg tablet (product)"}]},"product":{"batch":[{"lotNumber":"AT678","expirationDate":"2018-01"}]}}},{"resource":{"resourceType":"Medication","id":"A426C6E9-3966-4EF7-B4D6-13A491584F2E","meta":{"profile":["http://fhir.nhs.net/StructureDefinition/gpconnect-medication-1-0"]},"code":{"coding":[{"system":"http://snomed.info/sct","code":"1188832011","display":"Aspirin 75mg e/c tablet (product)"}]},"product":{"batch":[{"lotNumber":"WS7854","expirationDate":"2017-09"}]}}},{"resource":{"resourceType":"MedicationOrder","id":"DD4DE54A-9946-4BE9-855F-CE5F1269EFC6","meta":{"profile":["http://fhir.nhs.net/StructureDefinition/gpconnect-medicationorder-1-0"]},"identifier":[{"value":"918455DF-BAF2-476D-8AFA-C682B6E454B6"}],"dateWritten":"2015-02-01","status":"completed","patient":{"reference":"Patient/1A6E1B1C-6340-4663-926C-9CD1306EAAF8","display":"Sally Taylor"},"prescriber":{"reference":"Practitioner/5BF84050-8308-4271-BBC6-F296801714CE","display":"Dr Tom Wood"},"encounter":{"reference":"Encounter/EC0A4CEA-07DD-4C38-8AE6-F323B3B43425"},"medicationReference":{"reference":"Medication/9B74F00B-6C78-4F06-9E14-099799F37102E"},"dosageInstruction":[{"text":"One tablet daily","timing":{"repeat":{"frequency":1,"period":1,"periodUnits":"d"}}}],"dispenseRequest":{"extension":[{"url":"http://fhir.nhs.net/StructureDefinition/extension-medication-quantity-text-1-0","valueString":"250mg"},{"url":"http://fhir.nhs.net/StructureDefinition/extension-prescription-repeat-review-date-1-0","valueDate":"2015-08-01"}],"medicationReference":{"reference":"Medication/9B74F00B-6C78-4F06-9E14-099799F37102E"},"validityPeriod":{"start":"2015-02-01","end":"2015-08-01"},"numberOfRepeatsAllowed":6}}},{"resource":{"resourceType":"MedicationOrder","id":"235FCEC1-47EB-44C6-BCF6-624968299A88","meta":{"profile":["http://fhir.nhs.net/StructureDefinition/gpconnect-medicationorder-1-0"]},"identifier":[{"value":"8895044C-8224-4A4D-A62E-59FD49973ACF"}],"dateWritten":"2015-02-14","status":"completed","patient":{"reference":"Patient/1A6E1B1C-6340-4663-926C-9CD1306EAAF8","display":"Sally Taylor"},"prescriber":{"reference":"Practitioner/279B40F8-CB39-4BFD-B148-E33C76D14A54"},"encounter":{"reference":"Encounter/A53D3527-F193-497C-82C4-A024D02328E6"},"medicationReference":{"reference":"Medication/A426C6E9-3966-4EF7-B4D6-13A491584F2E"},"dosageInstruction":[{"text":"One tablet dissolved in water daily","timing":{"repeat":{"frequency":1,"period":1,"periodUnits":"d"}}}],"dispenseRequest":{"extension":[{"url":"http://fhir.nhs.net/StructureDefinition/extension-prescription-repeat-review-date-1-0","valueDate":"2015-02-21"}],"medicationReference":{"reference":"Medication/A426C6E9-3966-4EF7-B4D6-13A491584F2E"},"quantity":{"value":75,"unit":"mg","system":"http://unitsofmeasure.org","code":"mg"}}}},{"resource":{"resourceType":"MedicationDispense","id":"C9765922-B843-42D8-86CC-8F84BD74C465","meta":{"profile":["http://fhir.nhs.net/StructureDefinition/gpconnect-medicationdispense-1-0"]},"extension":[{"url":"http://fhir.nhs.net/StructureDefinition/extension-medication-quantity-text-1-0","valueString":"250mg"}],"identifier":{"value":"5F27EDAE-DCA2-4F8B-9EE4-2EAA16F7FB99"},"status":"completed","patient":{"reference":"Patient/1A6E1B1C-6340-4663-926C-9CD1306EAAF8","display":"Sally Taylor"},"authorizingPrescription":[{"reference":"MedicationOrder/DD4DE54A-9946-4BE9-855F-CE5F1269EFC6"}],"medicationReference":{"reference":"Medication/9B74F00B-6C78-4F06-9E14-099799F37102E"},"dosageInstruction":[{"text":"One daily","timing":{"repeat":{"frequency":1,"period":1,"periodUnits":"d"}}}]}},{"resource":{"resourceType":"MedicationDispense","id":"6ADFD0CF-3DD1-4885-BDEA-5DE682A9FF6D","meta":{"profile":["http://fhir.nhs.net/StructureDefinition/gpconnect-medicationdispense-1-0"]},"identifier":{"value":"2FD56433-C1D0-478E-B9A4-3CBD115A8B4B"},"status":"completed","patient":{"reference":"Patient/1A6E1B1C-6340-4663-926C-9CD1306EAAF8","display":"Sally Taylor"},"authorizingPrescription":[{"reference":"MedicationOrder/DD4DE54A-9946-4BE9-855F-CE5F1269EFC6"}],"quantity":{"value":75,"unit":"mg","system":"http://unitsofmeasure.org","code":"mg"},"medicationReference":{"reference":"Medication/A426C6E9-3966-4EF7-B4D6-13A491584F2E"},"dosageInstruction":[{"text":"One tablet dissolved in water daily","timing":{"repeat":{"frequency":1,"period":1,"periodUnits":"d"}}}]}},{"resource":{"resourceType":"MedicationAdministration","id":"14078934-2508-474F-A007-BA7188C499EB","meta":{"profile":["http://fhir.nhs.net/StructureDefinition/gpconnect-medicationadministration-1-0"]},"identifier":[{"value":"7471BF96-0FE4-462A-BDF6-B80D140F7C60"}],"status":"completed","patient":{"reference":"Patient/1A6E1B1C-6340-4663-926C-9CD1306EAAF8","display":"Sally Taylor"},"practitioner":{"reference":"Practitioner/0E520D9A-7560-46CF-B82F-29C2CCD0F2C3"},"encounter":{"reference":"Encounter/A53D3527-F193-497C-82C4-A024D02328E6"},"prescription":{"reference":"MedicationOrder/235FCEC1-47EB-44C6-BCF6-624968299A88"},"effectiveTimeDateTime":"2015-02-14","medicationReference":{"reference":"Medication/A426C6E9-3966-4EF7-B4D6-13A491584F2E"},"dosage":{"route":{"coding":[{"system":"http://fhir.nhs.net/ValueSet/nhs-e-prescribing-route-of-administration-1-0","code":"26643006","display":"Oral route (qualifier value)"}]},"quantity":{"value":75,"unit":"mg","system":"http://unitsofmeasure.org","code":"mg"}}}},{"resource":{"resourceType":"Observation","meta":{"profile":["http://fhir.nhs.net/StructureDefinition/gpconnect-observation-1-0"]},"identifier":[{"id":"9DDAEE3D-E728-4559-8F52-90E371CA5594"}],"status":"final","code":{"coding":[{"system":"http://snomed.info/sct","code":"75367002","display":"Blood pressure (observable entity)"}]},"subject":{"reference":"Patient/1A6E1B1C-6340-4663-926C-9CD1306EAAF8","display":"Sally Taylor"},"encounter":{"reference":"Encounter/A53D3527-F193-497C-82C4-A024D02328E6"},"effectiveDateTime":"2015-02-12","performer":[{"reference":"Practitioner/30D59E6F-09CF-4FCD-8772-CFA020211B60","display":"Dr Matt Smith"}],"valueString":"107/60","bodySite":{"coding":[{"system":"http://snomed.info/sct","code":"368209003","display":" Right upper arm structure (body structure)"}]},"component":[{"code":{"coding":[{"system":"http://snomed.info/sct","code":"271649006","display":"Systolic blood pressure (observable entity) "}]},"valueQuantity":{"value":107,"unit":"mmHg","system":"http://unitsofmeasure.org","code":"mm[Hg]"}},{"code":{"coding":[{"system":"http://snomed.info/sct","code":"271650006","display":"Diastolic blood pressure (observable entity)"}]},"valueQuantity":{"value":60,"unit":"mmHg","system":"http://unitsofmeasure.org","code":"mm[Hg]"}}]}},{"resource":{"resourceType":"Condition","id":"D7413A71-CBB4-4117-96BE-2EAE3B78AF3F","meta":{"profile":["http://fhir.nhs.net/StructureDefinition/gpconnect-problem-condition-1-0"]},"identifier":[{"value":"0AD1FB74-51C1-42E9-96F7-E1430B241034"}],"patient":{"reference":"Patient/1A6E1B1C-6340-4663-926C-9CD1306EAAF8","display":"Sally Taylor"},"encounter":{"reference":"Encounter/8F82E1BD-EC8B-46FA-98C9-DBEC9E462A5C","display":"Medical consultation on hospital inpatient (procedure)"},"asserter":{"reference":"Practitioner/5BF84050-8308-4271-BBC6-F296801714CE","display":"Dr Tom Wood"},"dateRecorded":"2015-02-14","code":{"coding":[{"system":"http://snomed.info/sct","code":"87486003","display":"Aphasia (finding)"}]},"category":{"coding":[{"system":"http://fhir.nhs.net/ValueSet/gpconnect-condition-category-1-0","code":"PRB","display":"Problem"}]},"verificationStatus":"confirmed"}},{"resource":{"resourceType":"Condition","id":"60F8A093-791E-4110-9576-795735FDC405","meta":{"profile":["http://fhir.nhs.net/StructureDefinition/gpconnect-problem-condition-1-0"]},"identifier":[{"value":"0FFAB7D0-E267-4661-A74B-1E4DED3C27DA"}],"patient":{"reference":"Patient/1A6E1B1C-6340-4663-926C-9CD1306EAAF8","display":"Sally Taylor"},"encounter":{"reference":"Encounter/8F82E1BD-EC8B-46FA-98C9-DBEC9E462A5C","display":"Medical consultation on hospital inpatient (procedure)"},"asserter":{"reference":"Practitioner/5BF84050-8308-4271-BBC6-F296801714CE","display":"Dr Tom Wood"},"dateRecorded":"2015-02-14","code":{"coding":[{"system":"http://snomed.info/sct","code":"40739000","display":"Dysphagia (disorder)"}]},"category":{"coding":[{"system":"http://fhir.nhs.net/ValueSet/gpconnect-condition-category-1-0","code":"PRB","display":"Problem"}]},"verificationStatus":"confirmed"}},{"resource":{"resourceType":"Procedure","id":"4447D8EF-579D-4B3A-BC54-7BF0FD0B3FBF","meta":{"profile":["http://fhir.nhs.net/StructureDefinition/gpconnect-procedure-1-0"]},"identifier":[{"id":"257041DE-E348-4826-A7E3-C38D8066E239"}],"subject":{"reference":"Patient/1A6E1B1C-6340-4663-926C-9CD1306EAAF8","display":"Sally Taylor"},"status":"completed","code":{"coding":[{"system":"http://snomed.info/sct","code":"235159007","display":"Percutaneous endoscopic gastrostomy (procedure)"}]},"bodySite":[{"coding":[{"system":"http://snomed.info/sct","code":"110863008","display":"Stomach and abdominal wall (combined site) (body structure)"}]}],"performer":[{"actor":{"reference":"Practitioner/30D59E6F-09CF-4FCD-8772-CFA020211B60","display":"Dr Matt Smith"}}],"encounter":{"reference":"Encounter/8F82E1BD-EC8B-46FA-98C9-DBEC9E462A5C","display":"Medical consultation on hospital inpatient (procedure)"},"location":{"reference":"Location/1DD5FEB8-79B2-4FBC-BA54-8C1E6332C9A2"}}},{"resource":{"resourceType":"Procedure","id":"7941F091-A3CA-4510-924D-3D2DFF5508F4","meta":{"profile":["http://fhir.nhs.net/StructureDefinition/gpconnect-procedure-1-0"]},"identifier":[{"id":"DF37746A-6356-4BEF-8500-C01878BDC150"}],"subject":{"reference":"Patient/1A6E1B1C-6340-4663-926C-9CD1306EAAF8","display":"Sally Taylor"},"status":"completed","code":{"coding":[{"system":"http://snomed.info/sct","code":"313028001","display":"Nail bed procedure (procedure)"}]},"bodySite":[{"coding":[{"system":"http://snomed.info/sct","code":"181589003","display":"Nail bed of little finger (body structure)"}]}],"performer":[{"actor":{"reference":"Practitioner/30D59E6F-09CF-4FCD-8772-CFA020211B60","display":"Dr Matt Smith"}}],"encounter":{"reference":"Encounter/61510A46-6F0D-4F11-83D4-6B6158387E69","display":"Consultation (procedure)"},"location":{"reference":"Location/79B09EA0-0B50-4A54-8654-D1E8FBC0AF8B"}}},{"resource":{"resourceType":"Practitioner","id":"649DE1D2-4938-4DA3-B377-E6F015F37EAF","meta":{"profile":["http://fhir.nhs.net/StructureDefinition/gpconnect-practitioner-1-0"]},"identifier":[{"system":"http://fhir.nhs.net/Id/sds-user-id","value":"C24682468"},{"system":"http://fhir.nhs.net/Id/sds-role-profile-id","value":"AB1233"}],"name":{"family":["Jones"],"given":["Jane"]},"practitionerRole":[{"managingOrganization":{"reference":"Organization/27126680-7BE6-11E5-A837-0800200C9A66"},"role":{"coding":[{"system":"http://fhir.nhs.net/ValueSet/sds-job-role-name-1-0","code":"R0700","display":"Community Nurse"}]}}],"communication":[{"coding":[{"system":"http://fhir.nhs.net/ValueSet/human-language-1-0","code":"en","display":"English"}]}]}},{"resource":{"resourceType":"Location","id":"B9760E00-99AA-11E5-A837-0800200C9A66","meta":{"profile":["http://fhir.nhs.net/StructureDefinition/gpconnect-location-1-0"]},"identifier":[{"use":"official","system":"http://fhir.nhs.net/Id/ods-site-code","value":"RJZ46"}],"name":"Haemotology Clinics","description":"Haematology Clinics of Kings College Hospital","type":{"coding":[{"system":"http://hl7.org/fhir/ValueSet/v3-ServiceDeliveryLocationRoleType","code":"HEM","display":"Hematology clinic"}]},"telecom":[{"system":"phone","value":"02032999009","use":"work"},{"system":"fax","value":"02032993445","use":"work"},{"system":"email","value":"kch-tr.OutpatientAppointments@nhs.net"}],"address":{"use":"work","line":["Denmark Hill"],"city":"London","postalCode":"SE59RS","country":"GBR"},"physicalType":{"coding":[{"system":"http://snomed.info/sct","code":"310390009","display":"Hospital clinic"}]},"managingOrganization":{"reference":"Organization/27126680-7BE6-11E5-A837-0800200C9A66"}}},{"resource":{"resourceType":"Organization","id":"27126680-7BE6-11E5-A837-0800200C9A66","meta":{"profile":["http://fhir.nhs.net/StructureDefinition/gpconnect-organization-1-0"]},"identifier":[{"system":"http://fhir.nhs.net/Id/ods-organization-code","value":"R1A02"}],"name":"King's College Hospital"}}]}