<Bundle xmlns="http://hl7.org/fhir"><id value="8559006F-D1EC-4095-9FFB-E8D45C3397A2" /><meta><profile value="http://fhir.nhs.net/StructureDefinition/gpconnect-searchset-bundle-1-0" /></meta><type value="searchset" /><entry><resource><Patient><meta><profile value="http://fhir.nhs.net/StructureDefinition/gpconnect-patient-1-0" /></meta><identifier><system value="http://fhir.nhs.net/Id/nhs-number" /><value value="9900002831" /></identifier><name><use value="usual" /><family value="Taylor" /><given value="Sally" /><prefix value="Mrs" /></name><birthDate value="1947-06-09" /><address><use value="home" /><type value="both" /><line value="42, Grove Street" /><city value="Overtown" /><district value="West Yorkshire" /><postalCode value="LS21 1PF" /></address></Patient></resource></entry><entry><resource><Composition><id value="8F9B4C4D-1D48-45EB-9AF7-B47E76BF2687" /><meta><profile value="http://fhir.nhs.net/StructureDefinition/gpconnect-carerecord-composition-1-0" /></meta><text><status value="generated" /><div xmlns="http://www.w3.org/1999/xhtml">
  <p style="font-size:20px">
    <b>Patient Care Record</b>
  </p>
  <table width="100%" border="1">
    <thead>
      <tr>
        <td colspan="5">
          <b>Meta</b>
        </td>
      </tr>
    </thead>
    <tbody align="left">
      <tr style="bold">
        <td style="width:20%">
          <b>Id</b>
        </td>
        <td style="width:20%">
          <b>Date</b>
        </td>
        <td style="width:20%">
          <b>Type</b>
        </td>
        <td style="width:20%">
          <b>Status</b>
        </td>
        <td style="width:20%">
          <b>Confidentiality</b>
        </td>
      </tr>
      <tr>
        <td style="width:20%">43FB6D24-10AE-4225-999A-C1CF8AA5D69E</td>
        <td style="width:20%">11 July 2015 10:11:15 AM</td>
        <td style="width:20%">Care Record</td>
        <td style="width:20%">Final</td>
        <td style="width:20%">Very Restricted</td>
      </tr>
    </tbody>
  </table>
  <br />
  <table width="100%" border="1">
    <thead>
      <tr>
        <td colspan="2">
          <b>Author/Custodian</b>
        </td>
      </tr>
    </thead>
    <tbody align="left">
      <tr>
        <td style="width:50%">
          <b>Author</b>
        </td>
        <td style="width:50%">
          <b>Custodian</b>
        </td>
      </tr>
      <tr>
        <td style="width:50%">Dr Tom Wood</td>
        <td style="width:50%">Wood Town GP Practice</td>
      </tr>
    </tbody>
  </table>
  <br />
</div></text><date value="2015-07-11T10:11:15+00:00" /><type><coding><system value="http://snomed.info/sct" /><code value="425173008" /><display value="record extract (record artifact)" /></coding><text value="record extract (record artifact)" /></type><class><coding><system value="http://snomed.info/sct" /><code value="700232004" /><display value="general medical service (qualifier value)" /></coding><text value="general medical service (qualifier value)" /></class><title value="Patient Record" /><status value="final" /><confidentiality value="V" /><subject><reference value="Patient/1A6E1B1C-6340-4663-926C-9CD1306EAAF8" /><display value="Sally Taylor" /></subject><author><reference value="Practitioner/5BF84050-8308-4271-BBC6-F296801714CE" /><display value="Dr Tom Wood" /></author><custodian><reference value="Organization/7C0356E6-7AB9-46E7-B5F9-5189D606F155" /><display value="Wood Town GP practice" /></custodian><section><title value="Patient Details" /><code><coding><system value="http://fhir.nhs.net/ValueSet/gpconnect-record-section-1-0" /><code value="PAT" /><display value="Patient Details" /></coding></code><text><status value="generated" /><div xmlns="http://www.w3.org/1999/xhtml">
  <table width="100%" border="1">
    <thead>
      <tr>
        <td colspan="4">
          <b>Patient details</b>
        </td>
      </tr>
    </thead>
    <tbody align="left" valign="top">
      <tr>
        <td style="width:25%">
          <b>NHS Number</b>
        </td>
        <td style="width:25%">
          <b>Patient Name</b>
        </td>
        <td style="width:25%">
          <b>Patient Date of Birth</b>
        </td>
        <td style="width:25%">
          <b>Address</b>
        </td>
      </tr>
      <tr>
        <td style="width:25%">9900002831</td>
        <td style="width:25%">Mrs Sally Taylor</td>
        <td style="width:25%">1947-06-09</td>
        <td style="width:25%">42 Grove Street<br />Overtown<br />West Yorkshire<br />LS21 1PF</td>
      </tr>
      <tr>
        <td colspan="4">
          <b>Next of Kin</b>
        </td>
      </tr>
      <tr>
        <td style="width:25%">
          <b>Name</b>
        </td>
        <td style="width:25%">
          <b>Address</b>
        </td>
        <td style="width:25%">
          <b>Telephone contact</b>
        </td>
        <td style="width:25%">
          <b>Relationship</b>
        </td>
      </tr>
      <tr>
        <td style="width:25%">Miss Ann Taylor</td>
        <td style="width:25%">120 Grove Street<br />Overtown<br />West Yorkshire<br />LS21 1PT</td>
        <td style="width:25%">0113-245-0909</td>
        <td style="width:25%">Daughter</td>
      </tr>
    </tbody>
  </table>
  <br />
</div></text></section><section><title value="Key Indicators (Flags)" /><code><coding><system value="http://fhir.nhs.net/ValueSet/gpconnect-record-section-1-0" /><code value="KEY" /><display value="Key Indicators (Flags)" /></coding></code><text><status value="generated" /><div xmlns="http://www.w3.org/1999/xhtml">
  <table width="100%" border="1">
    <thead>
      <tr>
        <td colspan="5">
          <p>
            <b>Key Indicators (Flags)</b>: </p>
        </td>
      </tr>
    </thead>
    <tbody align="left">
      <tr>
        <td style="width:25%">
          <b>Category</b>
        </td>
        <td style="width:25%">
          <b>Detail</b>
        </td>
        <td style="width:25%">
          <b>Source </b>
        </td>
        <td style="width:25%">
          <b>Location</b>
        </td>
      </tr>
      <tr>
        <td style="width:25%">Flag</td>
        <td style="width:25%">End of life care record exists</td>
        <td style="width:25%">GP Practitioner</td>
        <td style="width:25%">GP Record</td>
      </tr>
    </tbody>
  </table>
  <br />
</div></text><entry><reference value="Flag/5146B4A3-43A8-48FF-B5D4-CC64B38DBB8C" /></entry></section><section><title value="Allergies and Sensitivities" /><code><coding><system value="http://fhir.nhs.net/ValueSet/gpconnect-record-section-1-0" /><code value="ALL" /><display value="Allergies and Sensitivities" /></coding></code><text><status value="generated" /><div xmlns="http://www.w3.org/1999/xhtml">
  <table width="100%" border="1">
    <thead>
      <tr>
        <td colspan="5">
          <p>
            <b>Allergies and Sensitivities</b>: </p>
        </td>
      </tr>
    </thead>
    <tbody align="left">
      <tr>
        <td style="width:20%">
          <b>Allergy</b>
        </td>
        <td style="width:20%">
          <b>Manifestation</b>
        </td>
        <td style="width:20%">
          <b>Severity</b>
        </td>
        <td style="width:20%">
          <b>Onset</b>
        </td>
        <td style="width:20%">
          <b>Last Occurence</b>
        </td>
      </tr>
      <tr>
        <td style="width:20%">Allergy to penicillin (disorder)</td>
        <td style="width:20%">Difficulty breathing (finding)</td>
        <td style="width:20%">Moderate</td>
        <td style="width:20%">10-Jan-2015</td>
        <td style="width:20%">10-Jan-2015</td>
      </tr>
    </tbody>
  </table>
  <br />
</div></text><entry><reference value="AllergyIntolerance/0D0BA398-2BE9-4CA8-9184-C2C0ECADCEEA" /><display value="Allergy to penicillin (disorder)" /></entry></section><section><title value="Summary" /><code><coding><system value="http://fhir.nhs.net/ValueSet/gpconnect-record-section-1-0" /><code value="SUM" /><display value="Summary" /></coding></code><text><status value="generated" /><div xmlns="http://www.w3.org/1999/xhtml">
  <table width="100%" border="1">
    <thead>
      <tr>
        <td>
          <p>
            <b>Summary:</b>
            <br />
            <i>Summary of the patient's current problems, medications, allergies and recent consultations and investigations.<br />  Details can be seen in the section headers below.</i>
          </p>
        </td>
      </tr>
    </thead>
    <tbody align="left">
      <tr>
        <td>
          <ul>
            <li>
              <b>Reminders/Alerts:</b>
              <br />
              <i>None</i>
            </li>
            <li>
              <b>Current Problems:</b>
              <br />
              <i>Aphasia (finding).<br />
							Dysphagia (disorder).<br />
							Patients swallowing considered unsafe and on the advice of SALT team non oral feeding initiated.<br />
							Patient will require ongoing rehab and physiotherapy.<br /></i>
            </li>
            <li>
              <b>Current Medication:</b>
              <br />
              <i>Aspirin
									<br />
									Naproxen</i>
            </li>
            <li>
              <b>Recalls:</b>
              <br />
              <i>None</i>
            </li>
            <li>
              <b>Current Allergies/Sensitivies:</b>
              <br />
              <i>Allergy - Penicillin</i>
            </li>
            <li>
              <b>Recent Encounters:</b>
              <br />
              <i>Out-Patient - Consultation (procedure) - January<br />Admission - Medical consultation on hospital inpatient (procedure) - February</i>
            </li>
            <li>
              <b>Recent Investigations (within the last 3 months):</b>
              <br />
              <i>ECG
									<br />
									CT Scan</i>
            </li>
          </ul>
        </td>
      </tr>
    </tbody>
  </table>
  <br />
</div></text></section><section><title value="Administrative Items" /><code><coding><system value="http://fhir.nhs.net/ValueSet/gpconnect-record-section-1-0" /><code value="ADM" /><display value="Administrative Items" /></coding></code><text><status value="generated" /><div xmlns="http://www.w3.org/1999/xhtml">
  <table width="100%" border="1">
    <thead>
      <tr>
        <td>
          <p>
            <b>Administrative Items:</b>
            <br />
            <i>Details can be seen in the section headers below.</i>
          </p>
        </td>
      </tr>
    </thead>
    <tbody align="left">
      <tr>
        <td>
          <ul>
            <li>
              <b>Did Not Attends:</b>
              <br />
              <i>None</i>
            </li>
          </ul>
        </td>
      </tr>
    </tbody>
  </table>
  <br />
</div></text></section><section><title value="Clinical Items" /><code><coding><system value="http://fhir.nhs.net/ValueSet/gpconnect-record-section-1-0" /><code value="CLI" /><display value="Clinical Items" /></coding></code><text><status value="generated" /><div xmlns="http://www.w3.org/1999/xhtml">
  <table width="100%" border="1">
    <thead>
      <tr>
        <td>
          <p>
            <b>Clinical Items:</b>
            <br />
            <i>Details can be seen in the section headers below.</i>
          </p>
        </td>
      </tr>
    </thead>
    <tbody align="left">
      <tr>
        <td>
          <ul>
            <li>
              <b>Diagnosis:</b>
              <br />
              <i>Cerebrovascular accident (disorder)</i>
            </li>
            <li>
              <b>Procedures:</b>
              <br />
              <i>Percutaneous Endoscopic Gastrostomy (PEG) inserted
									<br />
									Nail bed procedure (procedure) performed</i>
            </li>
            <li>
              <b>Problems:</b>
              <br />
              <i>
							Aphasia (finding).<br />
							Dysphagia (disorder).<br />
							Lady previously admitted with a dense right sided weakness.<br />
							Patients swallowing considered unsafe and on the advice of SALT team non oral feeding initiated.<br />
							Patient will require ongoing rehab and physiotherapy.<br />
							Background of metastatic breast cancer and atrial fibrillation.</i>
            </li>
          </ul>
        </td>
      </tr>
    </tbody>
  </table>
  <br />
</div></text></section><section><title value="Encounters" /><code><coding><system value="http://fhir.nhs.net/ValueSet/gpconnect-record-section-1-0" /><code value="ENC" /><display value="Encounters" /></coding></code><text><status value="generated" /><div xmlns="http://www.w3.org/1999/xhtml">
  <table width="100%" border="1">
    <thead>
      <tr>
        <td style="width:50%" colspan="4">
          <p>
            <b>Encounters</b>: </p>
        </td>
      </tr>
    </thead>
    <tbody align="left">
      <tr>
        <td style="width:25%">
          <b>Encounter</b>
        </td>
        <td style="width:25%">
          <b>Location</b>
        </td>
        <td style="width:25%">
          <b>Start Date</b>
        </td>
        <td style="width:25%">
          <b>End Date</b>
        </td>
      </tr>
      <tr>
        <td style="width:25%">Medical consultation on hospital inpatient (procedure)</td>
        <td style="width:25%">In-patient</td>
        <td style="width:25%">12-Feb-2015</td>
        <td style="width:25%">19-Feb-2015</td>
      </tr>
      <tr>
        <td style="width:25%">Consultation (procedure) </td>
        <td style="width:25%">Out-patient</td>
        <td style="width:25%">01-Jan-2015</td>
        <td style="width:25%">01-Jan-2015</td>
      </tr>
    </tbody>
  </table>
  <br />
</div></text><entry><reference value="Encounter/61510A46-6F0D-4F11-83D4-6B6158387E69" /><display value="Consultation (procedure)" /></entry><entry><reference value="Encounter/8F82E1BD-EC8B-46FA-98C9-DBEC9E462A5C" /><display value="Medical consultation on hospital inpatient (procedure)" /></entry></section><section><title value="Immunisations/Vaccinations" /><code><coding><system value="http://fhir.nhs.net/ValueSet/gpconnect-record-section-1-0" /><code value="IMM" /><display value="Immunisations" /></coding></code><text><status value="generated" /><div xmlns="http://www.w3.org/1999/xhtml">
  <table width="100%" border="1">
    <thead>
      <tr>
        <td colspan="4">
          <p>
            <b>Immunisations/Vaccinations</b>: </p>
        </td>
      </tr>
    </thead>
    <tbody align="left">
      <tr>
        <td style="width:40%">
          <b>Vaccine</b>
        </td>
        <td style="width:20%">
          <b>Date</b>
        </td>
        <td style="width:20%">
          <b>Status</b>
        </td>
        <td style="width:20%">
          <b>Dose Sequence</b>
        </td>
      </tr>
      <tr>
        <td style="width:40%">Rabies vaccine 0.25iu/0.1mL powder for injection single dose syringe (product)</td>
        <td style="width:20%">01-Mar-2016</td>
        <td style="width:20%">In progress</td>
        <td style="width:20%">1</td>
      </tr>
      <tr>
        <td style="width:40%">Rabies vaccine 0.25iu/0.1mL powder for injection single dose syringe (product)</td>
        <td style="width:20%">08-Mar-2016</td>
        <td style="width:20%">In progress</td>
        <td style="width:20%">2</td>
      </tr>
    </tbody>
  </table>
  <br />
</div></text><entry><reference value="Immunisation/649E6D92-1083-48A5-AC88-C14D31B836ED" /><display value="Rabies vaccine 0.25iu/0.1mL powder for injection single dose syringe (product)" /></entry><entry><reference value="Immunisation/8526805B-A894-4F10-A0C1-2B4C0BBC69FE" /><display value="Rabies vaccine 0.25iu/0.1mL powder for injection single dose syringe (product)" /></entry></section><section><title value="Investigations" /><code><coding><system value="http://fhir.nhs.net/ValueSet/gpconnect-record-section-1-0" /><code value="INV" /><display value="Investigations" /></coding></code><text><status value="generated" /><div xmlns="http://www.w3.org/1999/xhtml">
  <table width="100%" border="1">
    <thead>
      <tr>
        <td colspan="4">
          <p>
            <b>Investigations</b>: </p>
        </td>
      </tr>
    </thead>
    <tbody align="left">
      <tr>
        <td style="width:50%">
          <b>Investigation requested</b>
        </td>
        <td style="width:50%">
          <b>Investigation results</b>
        </td>
      </tr>
      <tr>
        <td style="width:50%">Computed tomography scan - whole body (procedure)</td>
        <td style="width:50%">Established Left MCA Territory infarct.</td>
      </tr>
      <tr>
        <td style="width:50%">Electrocardiographic monitoring (procedure)</td>
        <td style="width:50%">AF</td>
      </tr>
    </tbody>
  </table>
  <br />
</div></text><entry><reference value="DiagnosticOrder/1E660D86-F64B-4747-AA48-1281F173B933" /><display value="Computed tomography scan - whole body (procedure)" /></entry><entry><reference value="DiagnosticOrder/AB700305-92D8-4E25-94B4-5F7B9CBC9609" /><display value="Electrocardiographic monitoring (procedure)" /></entry></section><section><title value="Medications" /><code><coding><system value="http://fhir.nhs.net/ValueSet/gpconnect-record-section-1-0" /><code value="MED" /><display value="Medications" /></coding></code><text><status value="generated" /><div xmlns="http://www.w3.org/1999/xhtml">
  <table width="100%" border="1">
    <thead>
      <tr>
        <td colspan="6">
          <p>
            <b>Medications</b>: </p>
        </td>
      </tr>
    </thead>
    <tbody align="left">
      <tr>
        <td style="width:20%">
          <b>Name</b>
        </td>
        <td style="width:10%">
          <b>Dose</b>
        </td>
        <td style="width:20%">
          <b>Medication Frequency</b>
        </td>
        <td style="width:10%">
          <b>Route</b>
        </td>
        <td style="width:20%">
          <b>Medication Recommendations</b>
        </td>
        <td style="width:20%">
          <b>Date Prescribed</b>
        </td>
      </tr>
      <tr>
        <td style="width:20%">Naproxen 250mg tablet (product)</td>
        <td style="width:10%">250mg</td>
        <td style="width:20%">One daily</td>
        <td style="width:10%">oral</td>
        <td style="width:20%">continue</td>
        <td style="width:20%">1-Feb-2015</td>
      </tr>
      <tr>
        <td style="width:20%">Aspirin 75mg e/c tablet (product)</td>
        <td style="width:10%">75mg</td>
        <td style="width:20%">One daily</td>
        <td style="width:10%">oral</td>
        <td style="width:20%">continue</td>
        <td style="width:20%">14-Feb-2015</td>
      </tr>
    </tbody>
  </table>
  <br />
</div></text><entry><reference value="Medication/9B74F00B-6C78-4F06-9E14-099799F37102E" /><display value="Naproxen 250mg tablet (product)" /></entry><entry><reference value="MedicationOrder/DD4DE54A-9946-4BE9-855F-CE5F1269EFC6" /><display value="Prescription for Naproxen 250mg tablet (product)" /></entry><entry><reference value="MedicationDispense/C9765922-B843-42D8-86CC-8F84BD74C465" /><display value="Dispense of Naproxen 250mg tablet (product)" /></entry><entry><reference value="Medication/A426C6E9-3966-4EF7-B4D6-13A491584F2E" /><display value="Aspirin 75mg e/c tablet (product)" /></entry><entry><reference value="MedicationOrder/235FCEC1-47EB-44C6-BCF6-624968299A88" /><display value="Prescription for Aspirin 75mg e/c tablet (product)" /></entry><entry><reference value="MedicationDispense/6ADFD0CF-3DD1-4885-BDEA-5DE682A9FF6D" /><display value="Dispense of Aspirin 75mg e/c tablet (product)" /></entry><entry><reference value="MedicationAdministration/14078934-2508-474F-A007-BA7188C499EB" /><display value="Medication Administration of Aspirin 75mg e/c tablet (product)" /></entry></section><section><title value="Observations" /><code><coding><system value="http://fhir.nhs.net/ValueSet/gpconnect-record-section-1-0" /><code value="OBS" /><display value="Observations" /></coding></code><text><status value="generated" /><div xmlns="http://www.w3.org/1999/xhtml">
  <table width="100%" border="1">
    <thead>
      <tr>
        <td colspan="4">
          <p>
            <b>Observations</b>: </p>
        </td>
      </tr>
    </thead>
    <tbody align="left">
      <tr>
        <td colspan="4">
          <b>Blood Pressure</b>
        </td>
      </tr>
      <tr>
        <td style="width:25%">
          <b>Blood pressure systolic</b>
        </td>
        <td style="width:25%">
          <b>Blood pressure diastolic</b>
        </td>
        <td style="width:25%">
          <b>Body Site</b>
        </td>
        <td style="width:25%">
          <b>Observation Date</b>
        </td>
      </tr>
      <tr>
        <td style="width:25%">107 mm[Hg]</td>
        <td style="width:25%">60 mm [Hg]</td>
        <td style="width:25%">Right arm</td>
        <td style="width:25%">12-Feb-2015</td>
      </tr>
    </tbody>
  </table>
  <br />
</div></text><entry><reference value="Observation/9DDAEE3D-E728-4559-8F52-90E371CA5594" /><display value="Blood pressure (observable entity)" /></entry></section><section><title value="Problems" /><code><coding><system value="http://fhir.nhs.net/ValueSet/gpconnect-record-section-1-0" /><code value="PRB" /><display value="Problems" /></coding></code><text><status value="generated" /><div xmlns="http://www.w3.org/1999/xhtml">
  <table width="100%" border="1">
    <thead>
      <tr>
        <td colspan="2">
          <p>
            <b>Problems</b>: </p>
        </td>
      </tr>
    </thead>
    <tbody align="left">
      <tr>
        <td>Aphasia (finding).</td>
      </tr>
      <tr>
        <td>Dysphagia (disorder).</td>
      </tr>
      <tr>
        <td>Lady previously admitted with a dense right sided weakness.</td>
      </tr>
      <tr>
        <td>Patients swallowing considered unsafe and on the advice of SALT team non oral feeding initiated.</td>
      </tr>
      <tr>
        <td>Patient will require ongoing rehab and physiotherapy.</td>
      </tr>
      <tr>
        <td>Background of metastatic breast cancer and atrial fibrillation.</td>
      </tr>
    </tbody>
  </table>
  <br />
</div></text><entry><reference value="Condition/D7413A71-CBB4-4117-96BE-2EAE3B78AF3" /><display value="Aphasia (finding)" /></entry><entry><reference value="Condition/60F8A093-791E-4110-9576-795735FDC405" /><display value="Dysphagia (disorder)" /></entry></section><section><title value="Referrals" /><code><coding><system value="http://fhir.nhs.net/ValueSet/gpconnect-record-section-1-0" /><code value="REF" /><display value="Referral" /></coding></code><text><status value="generated" /><div xmlns="http://www.w3.org/1999/xhtml">
  <table width="100%" border="1">
    <thead>
      <tr>
        <td>
          <p>
            <b>Referrals:</b>
          </p>
        </td>
      </tr>
    </thead>
    <tbody align="left">
      <tr>
        <td>
          <ul>
            <li>
              <b>Referrals:</b>
              <br />
              <i>None</i>
            </li>
          </ul>
        </td>
      </tr>
    </tbody>
  </table>
  <br />
</div></text></section></Composition></resource></entry><entry><resource><Practitioner><id value="5BF84050-8308-4271-BBC6-F296801714CE" /><meta><profile value="http://fhir.nhs.net/StructureDefinition/gpconnect-practitioner-1-0" /></meta><identifier><system value="http://fhir.nhs.net/Id/sds-user-id" /><value value="G12345678" /></identifier><identifier><system value="http://fhir.nhs.net/Id/sds-role-profile-id" /><value value="PT1234" /></identifier><name><family value="Wood" /><given value="Tom" /><prefix value="Dr." /></name><practitionerRole><managingOrganization><reference value="Organization/7C0356E6-7AB9-46E7-B5F9-5189D606F155" /></managingOrganization><role><coding><system value="http://fhir.nhs.net/ValueSet/sds-job-role-name-1-0" /><code value="R0260" /><display value="General Medical Practitioner" /></coding></role></practitionerRole></Practitioner></resource></entry><entry><resource><Organization><id value="7C0356E6-7AB9-46E7-B5F9-5189D606F155" /><meta><profile value="http://fhir.nhs.net/StructureDefinition/gpconnect-organization-1-0" /></meta><identifier><system value="http://fhir.nhs.net/Id/ods-organization-code" /><value value="B86022" /></identifier><name value="Wood Town GP practice" /></Organization></resource></entry><entry><resource><AllergyIntolerance><id value="0D0BA398-2BE9-4CA8-9184-C2C0ECADCEEA" /><meta><profile value="http://fhir.nhs.net/StructureDefinition/gpconnect-allergyintolerance-1-0" /></meta><extension url="http://fhir.nhs.net/StructureDefinition/extension-encounter-reference-1-0"><valueReference><reference value="Encounter/FAE3CE51-DF19-4D8D-BABC-630261CFF7A6" /></valueReference></extension><identifier><value value="C8EC110F-EE08-42AB-BC4C-F1CC7B32D520" /></identifier><onset value="2015-01-10" /><recordedDate value="2015-01-10" /><recorder><reference value="Practitioner/30D59E6F-09CF-4FCD-8772-CFA020211B60" /><display value="Dr. Matt Smith" /></recorder><patient><reference value="Patient/1A6E1B1C-6340-4663-926C-9CD1306EAAF8" /><display value="Sally Taylor" /></patient><substance><coding><system value="http://snomed.info/sct" /><code value="91936005" /><display value="Allergy to penicillin (disorder)" /></coding></substance><status value="confirmed" /><lastOccurence value="2015-01-10" /><reaction><manifestation><coding><system value="http://snomed.info/sct" /><code value="230145002" /><display value="Difficulty breathing (finding)" /></coding></manifestation><onset value="2015-01-10" /><severity value="moderate" /></reaction></AllergyIntolerance></resource></entry><entry><resource><Condition><id value="3599E6E6-5F95-4679-946B-8DDA0C579ACC" /><meta><profile value="http://fhir.nhs.net/StructureDefinition/gpconnect-diagnosis-condition-1-0" /></meta><identifier><value value="F3BED5EA-715B-4053-8C71-82B3FED731A9" /></identifier><patient><reference value="Patient/1A6E1B1C-6340-4663-926C-9CD1306EAAF8" /><display value="Sally Taylor" /></patient><encounter><reference value="Encounter/8F82E1BD-EC8B-46FA-98C9-DBEC9E462A5C" /><display value="Medical consultation on hospital inpatient (procedure)" /></encounter><asserter><reference value="Practitioner/5BF84050-8308-4271-BBC6-F296801714CE" /><display value="Dr Tom Wood" /></asserter><dateRecorded value="2015-02-14" /><code><coding><system value="http://snomed.info/sct" /><code value="230690007" /><display value="Cerebrovascular accident (disorder)" /></coding></code><category><coding><system value="http://fhir.nhs.net/ValueSet/gpconnect-condition-category-1-0" /><code value="DIA" /><display value="Diagnosis" /></coding></category><verificationStatus value="confirmed" /></Condition></resource></entry><entry><resource><Encounter><id value="8F82E1BD-EC8B-46FA-98C9-DBEC9E462A5C" /><meta><profile value="http://fhir.nhs.net/StructureDefinition/gpconnect-encounter-1-0" /></meta><identifier><value value="6EF871D4-325F-4E47-8FBA-C704B9D17E9B" /></identifier><status value="finished" /><class value="inpatient" /><type><coding><system value="http://snomed.info/sct" /><code value="24882007" /><display value="Medical consultation on hospital inpatient (procedure)" /></coding></type><patient><reference value="Patient/1A6E1B1C-6340-4663-926C-9CD1306EAAF8" /><display value="Sally Taylor" /></patient><participant><type><coding><system value="http://fhir.nhs.net/ValueSet/sds-job-role-name-1-0" /><code value="R0050" /><display value="Consultant" /></coding></type></participant><period><start value="2015-02-12" /><end value="2015-02-19" /></period><location><location><reference value="Location/41ED372D-15D5-4CB8-92D8-E797196371AF" /><display value="RR801" /></location></location></Encounter></resource></entry><entry><resource><Encounter><id value="61510A46-6F0D-4F11-83D4-6B6158387E69" /><meta><profile value="http://fhir.nhs.net/StructureDefinition/gpconnect-encounter-1-0" /></meta><identifier><value value="887A99F1-8CAE-4349-8045-7F8A9CDEDB1C" /></identifier><status value="finished" /><type><coding><system value="http://snomed.info/sct" /><code value="11429006" /><display value="Consultation (procedure)" /></coding></type><patient><reference value="Patient/1A6E1B1C-6340-4663-926C-9CD1306EAAF8" /><display value="Sally Taylor" /></patient><participant><type><coding><system value="http://fhir.nhs.net/ValueSet/sds-job-role-name-1-0" /><code value="R0260" /><display value="General Medical Practitioner" /></coding></type></participant><period><start value="2015-01-01" /><end value="2015-01-01" /></period><location><location><reference value="Location/79B09EA0-0B50-4A54-8654-D1E8FBC0AF8B" /></location></location></Encounter></resource></entry><entry><resource><Immunization><id value="BA00E169-08EB-48A0-9298-C7D576875CC1" /><meta><profile value="http://fhir.nhs.net/StructureDefinition/gpconnect-immunization-1-0" /></meta><identifier><value value="649E6D92-1083-48A5-AC88-C14D31B836ED" /></identifier><status value="in-progress" /><date value="2016-03-01" /><vaccineCode><coding><system value="http://snomed.info/sct" /><code value="400331004" /><display value="Rabies vaccine 0.25iu/0.1mL powder for injection single dose syringe (product)" /></coding></vaccineCode><patient><reference value="Patient/1A6E1B1C-6340-4663-926C-9CD1306EAAF8" /><display value="Sally Taylor" /></patient><wasNotGiven value="false" /><reported value="false" /><performer><reference value="Practitioner/649DE1D2-4938-4DA3-B377-E6F015F37EAF" /></performer><encounter><reference value="Encounter/5EBCD865-7D33-42A7-82DC-C2203A5DE0DE" /></encounter><lotNumber value="63259874" /><expirationDate value="2020-01-01" /><site><coding><system value="http://snomed.info/sct" /><code value="35259002" /><display value="Structure of deltoid muscle (body structure)" /></coding></site><route><coding><system value="http://snomed.info/sct" /><code value="285837007" /><display value="Injection into body site (procedure)" /></coding></route><doseQuantity><value value="0.1" /><unit value="mL" /><system value="http://unitsofmeasure.org" /><code value="mL" /></doseQuantity><vaccinationProtocol><doseSequence value="1" /><targetDisease><coding><system value="http://snomed.info/sct" /><code value="14168008" /><display value="Rabies (disorder)" /></coding></targetDisease><doseStatus><coding><system value="http://hl7.org/fhir/vaccination-protocol-dose-status" /><code value="count" /><display value="Counts" /></coding></doseStatus></vaccinationProtocol></Immunization></resource></entry><entry><resource><Immunization><id value="16CC23B7-1208-42A3-981C-A4169B49D927" /><meta><profile value="http://fhir.nhs.net/StructureDefinition/gpconnect-immunization-1-0" /></meta><identifier><value value="8526805B-A894-4F10-A0C1-2B4C0BBC69FE" /></identifier><status value="in-progress" /><date value="2016-03-08" /><vaccineCode><coding><system value="http://snomed.info/sct" /><code value="400331004" /><display value="Rabies vaccine 0.25iu/0.1mL powder for injection single dose syringe (product)" /></coding></vaccineCode><patient><reference value="Patient/1A6E1B1C-6340-4663-926C-9CD1306EAAF8" /><display value="Sally Taylor" /></patient><wasNotGiven value="false" /><reported value="false" /><performer><reference value="Practitioner/649DE1D2-4938-4DA3-B377-E6F015F37EAF" /></performer><encounter><reference value="Encounter/19808184-874A-4F68-8D03-C17F33E08D19" /></encounter><lotNumber value="25987456" /><expirationDate value="2020-02-13" /><site><coding><system value="http://snomed.info/sct" /><code value="35259002" /><display value="Structure of deltoid muscle (body structure)" /></coding></site><route><coding><system value="http://snomed.info/sct" /><code value="285837007" /><display value="Injection into body site (procedure)" /></coding></route><doseQuantity><value value="0.1" /><unit value="mL" /><system value="http://unitsofmeasure.org" /><code value="mL" /></doseQuantity><vaccinationProtocol><doseSequence value="2" /><targetDisease><coding><system value="http://snomed.info/sct" /><code value="14168008" /><display value="Rabies (disorder)" /></coding></targetDisease><doseStatus><coding><system value="http://hl7.org/fhir/vaccination-protocol-dose-status" /><code value="count" /><display value="Counts" /></coding></doseStatus></vaccinationProtocol></Immunization></resource></entry><entry><resource><DiagnosticOrder><id value="1E660D86-F64B-4747-AA48-1281F173B933" /><subject><reference value="Patient/1A6E1B1C-6340-4663-926C-9CD1306EAAF8" /><display value="Sally Taylor" /></subject><orderer><reference value="Practitioner/5BF84050-8308-4271-BBC6-F296801714CE" /><display value="Dr Tom Wood" /></orderer><identifier><value value="183DE1A2-C303-4639-A6F0-D4A98E0304D2" /></identifier><encounter><reference value="Encounter/8F82E1BD-EC8B-46FA-98C9-DBEC9E462A5C" /><display value="Medical consultation on hospital inpatient (procedure)" /></encounter><status value="completed" /><priority value="urgent" /><item><code><coding><system value="http://snomed.info/sct" /><code value="169072007" /><display value="Computed tomography scan - whole body (procedure)" /></coding></code></item></DiagnosticOrder></resource></entry><entry><resource><DiagnosticOrder><id value="AB700305-92D8-4E25-94B4-5F7B9CBC9609" /><subject><reference value="Patient/1A6E1B1C-6340-4663-926C-9CD1306EAAF8" /><display value="Sally Taylor" /></subject><orderer><reference value="Practitioner/5BF84050-8308-4271-BBC6-F296801714CE" /><display value="Dr Tom Wood" /></orderer><identifier><value value="183DE1A2-C303-4639-A6F0-D4A98E0304D2" /></identifier><encounter><reference value="Encounter/8F82E1BD-EC8B-46FA-98C9-DBEC9E462A5C" /><display value="Medical consultation on hospital inpatient (procedure)" /></encounter><status value="completed" /><priority value="urgent" /><item><code><coding><system value="http://snomed.info/sct" /><code value="46825001" /><display value="Electrocardiographic monitoring (procedure)" /></coding></code></item></DiagnosticOrder></resource></entry><entry><resource><Flag><id value="5146B4A3-43A8-48FF-B5D4-CC64B38DBB8C" /><meta><profile value="http://fhir.nhs.net/StructureDefinition/gpconnect-keyindicator-flag-1-0" /></meta><extension url="http://fhir.nhs.net/StructureDefinition/extension-flag-information-location-1-0"><valueString value="GP system" /></extension><extension url="http://fhir.nhs.net/StructureDefinition/extension-flag-source-1-0"><valueString value="GP Practitioner" /></extension><identifier><value value="5A52A0BF-54CC-4616-A7FF-C6656CFF8B02" /></identifier><category><coding><system value="http://fhir.nhs.net/ValueSet/gpconnect-key-flags-category-1-0" /><code value="FLAG" /><display value="Flag" /></coding></category><status value="active" /><subject><reference value="Patient/1A6E1B1C-6340-4663-926C-9CD1306EAAF8" /><display value="Sally Taylor" /></subject><code><coding><system value="http://fhir.nhs.net/ValueSet/gpconnect-key-flags-code-1-0" /><code value="EoLC" /><display value="End of life care record exists" /></coding></code></Flag></resource></entry><entry><resource><Medication><id value="9B74F00B-6C78-4F06-9E14-099799F37102E" /><meta><profile value="http://fhir.nhs.net/StructureDefinition/gpconnect-medication-1-0" /></meta><code><coding><system value="http://snomed.info/sct" /><code value="329806007" /><display value="Naproxen 250mg tablet (product)" /></coding></code><product><batch><lotNumber value="AT678" /><expirationDate value="2018-01" /></batch></product></Medication></resource></entry><entry><resource><Medication><id value="A426C6E9-3966-4EF7-B4D6-13A491584F2E" /><meta><profile value="http://fhir.nhs.net/StructureDefinition/gpconnect-medication-1-0" /></meta><code><coding><system value="http://snomed.info/sct" /><code value="1188832011" /><display value="Aspirin 75mg e/c tablet (product)" /></coding></code><product><batch><lotNumber value="WS7854" /><expirationDate value="2017-09" /></batch></product></Medication></resource></entry><entry><resource><MedicationOrder><id value="DD4DE54A-9946-4BE9-855F-CE5F1269EFC6" /><meta><profile value="http://fhir.nhs.net/StructureDefinition/gpconnect-medicationorder-1-0" /></meta><identifier><value value="918455DF-BAF2-476D-8AFA-C682B6E454B6" /></identifier><dateWritten value="2015-02-01" /><status value="completed" /><patient><reference value="Patient/1A6E1B1C-6340-4663-926C-9CD1306EAAF8" /><display value="Sally Taylor" /></patient><prescriber><reference value="Practitioner/5BF84050-8308-4271-BBC6-F296801714CE" /><display value="Dr Tom Wood" /></prescriber><encounter><reference value="Encounter/EC0A4CEA-07DD-4C38-8AE6-F323B3B43425" /></encounter><medicationReference><reference value="Medication/9B74F00B-6C78-4F06-9E14-099799F37102E" /></medicationReference><dosageInstruction><text value="One tablet daily" /><timing><repeat><frequency value="1" /><period value="1" /><periodUnits value="d" /></repeat></timing></dosageInstruction><dispenseRequest><extension url="http://fhir.nhs.net/StructureDefinition/extension-medication-quantity-text-1-0"><valueString value="250mg" /></extension><extension url="http://fhir.nhs.net/StructureDefinition/extension-prescription-repeat-review-date-1-0"><valueDate value="2015-08-01" /></extension><medicationReference><reference value="Medication/9B74F00B-6C78-4F06-9E14-099799F37102E" /></medicationReference><validityPeriod><start value="2015-02-01" /><end value="2015-08-01" /></validityPeriod><numberOfRepeatsAllowed value="6" /></dispenseRequest></MedicationOrder></resource></entry><entry><resource><MedicationOrder><id value="235FCEC1-47EB-44C6-BCF6-624968299A88" /><meta><profile value="http://fhir.nhs.net/StructureDefinition/gpconnect-medicationorder-1-0" /></meta><identifier><value value="8895044C-8224-4A4D-A62E-59FD49973ACF" /></identifier><dateWritten value="2015-02-14" /><status value="completed" /><patient><reference value="Patient/1A6E1B1C-6340-4663-926C-9CD1306EAAF8" /><display value="Sally Taylor" /></patient><prescriber><reference value="Practitioner/279B40F8-CB39-4BFD-B148-E33C76D14A54" /></prescriber><encounter><reference value="Encounter/A53D3527-F193-497C-82C4-A024D02328E6" /></encounter><medicationReference><reference value="Medication/A426C6E9-3966-4EF7-B4D6-13A491584F2E" /></medicationReference><dosageInstruction><text value="One tablet dissolved in water daily" /><timing><repeat><frequency value="1" /><period value="1" /><periodUnits value="d" /></repeat></timing></dosageInstruction><dispenseRequest><extension url="http://fhir.nhs.net/StructureDefinition/extension-prescription-repeat-review-date-1-0"><valueDate value="2015-02-21" /></extension><medicationReference><reference value="Medication/A426C6E9-3966-4EF7-B4D6-13A491584F2E" /></medicationReference><quantity><value value="75" /><unit value="mg" /><system value="http://unitsofmeasure.org" /><code value="mg" /></quantity></dispenseRequest></MedicationOrder></resource></entry><entry><resource><MedicationDispense><id value="C9765922-B843-42D8-86CC-8F84BD74C465" /><meta><profile value="http://fhir.nhs.net/StructureDefinition/gpconnect-medicationdispense-1-0" /></meta><extension url="http://fhir.nhs.net/StructureDefinition/extension-medication-quantity-text-1-0"><valueString value="250mg" /></extension><identifier><value value="5F27EDAE-DCA2-4F8B-9EE4-2EAA16F7FB99" /></identifier><status value="completed" /><patient><reference value="Patient/1A6E1B1C-6340-4663-926C-9CD1306EAAF8" /><display value="Sally Taylor" /></patient><authorizingPrescription><reference value="MedicationOrder/DD4DE54A-9946-4BE9-855F-CE5F1269EFC6" /></authorizingPrescription><medicationReference><reference value="Medication/9B74F00B-6C78-4F06-9E14-099799F37102E" /></medicationReference><dosageInstruction><text value="One daily" /><timing><repeat><frequency value="1" /><period value="1" /><periodUnits value="d" /></repeat></timing></dosageInstruction></MedicationDispense></resource></entry><entry><resource><MedicationDispense><id value="6ADFD0CF-3DD1-4885-BDEA-5DE682A9FF6D" /><meta><profile value="http://fhir.nhs.net/StructureDefinition/gpconnect-medicationdispense-1-0" /></meta><identifier><value value="2FD56433-C1D0-478E-B9A4-3CBD115A8B4B" /></identifier><status value="completed" /><patient><reference value="Patient/1A6E1B1C-6340-4663-926C-9CD1306EAAF8" /><display value="Sally Taylor" /></patient><authorizingPrescription><reference value="MedicationOrder/DD4DE54A-9946-4BE9-855F-CE5F1269EFC6" /></authorizingPrescription><quantity><value value="75" /><unit value="mg" /><system value="http://unitsofmeasure.org" /><code value="mg" /></quantity><medicationReference><reference value="Medication/A426C6E9-3966-4EF7-B4D6-13A491584F2E" /></medicationReference><dosageInstruction><text value="One tablet dissolved in water daily" /><timing><repeat><frequency value="1" /><period value="1" /><periodUnits value="d" /></repeat></timing></dosageInstruction></MedicationDispense></resource></entry><entry><resource><MedicationAdministration><id value="14078934-2508-474F-A007-BA7188C499EB" /><meta><profile value="http://fhir.nhs.net/StructureDefinition/gpconnect-medicationadministration-1-0" /></meta><identifier><value value="7471BF96-0FE4-462A-BDF6-B80D140F7C60" /></identifier><status value="completed" /><patient><reference value="Patient/1A6E1B1C-6340-4663-926C-9CD1306EAAF8" /><display value="Sally Taylor" /></patient><practitioner><reference value="Practitioner/0E520D9A-7560-46CF-B82F-29C2CCD0F2C3" /></practitioner><encounter><reference value="Encounter/A53D3527-F193-497C-82C4-A024D02328E6" /></encounter><prescription><reference value="MedicationOrder/235FCEC1-47EB-44C6-BCF6-624968299A88" /></prescription><effectiveTimeDateTime value="2015-02-14" /><medicationReference><reference value="Medication/A426C6E9-3966-4EF7-B4D6-13A491584F2E" /></medicationReference><dosage><route><coding><system value="http://fhir.nhs.net/ValueSet/nhs-e-prescribing-route-of-administration-1-0" /><code value="26643006" /><display value="Oral route (qualifier value)" /></coding></route><quantity><value value="75" /><unit value="mg" /><system value="http://unitsofmeasure.org" /><code value="mg" /></quantity></dosage></MedicationAdministration></resource></entry><entry><resource><Observation><meta><profile value="http://fhir.nhs.net/StructureDefinition/gpconnect-observation-1-0" /></meta><identifier id="9DDAEE3D-E728-4559-8F52-90E371CA5594" /><status value="final" /><code><coding><system value="http://snomed.info/sct" /><code value="75367002" /><display value="Blood pressure (observable entity)" /></coding></code><subject><reference value="Patient/1A6E1B1C-6340-4663-926C-9CD1306EAAF8" /><display value="Sally Taylor" /></subject><encounter><reference value="Encounter/A53D3527-F193-497C-82C4-A024D02328E6" /></encounter><effectiveDateTime value="2015-02-12" /><performer><reference value="Practitioner/30D59E6F-09CF-4FCD-8772-CFA020211B60" /><display value="Dr Matt Smith" /></performer><valueString value="107/60" /><bodySite><coding><system value="http://snomed.info/sct" /><code value="368209003" /><display value=" Right upper arm structure (body structure)" /></coding></bodySite><component><code><coding><system value="http://snomed.info/sct" /><code value="271649006" /><display value="Systolic blood pressure (observable entity) " /></coding></code><valueQuantity><value value="107" /><unit value="mmHg" /><system value="http://unitsofmeasure.org" /><code value="mm[Hg]" /></valueQuantity></component><component><code><coding><system value="http://snomed.info/sct" /><code value="271650006" /><display value="Diastolic blood pressure (observable entity)" /></coding></code><valueQuantity><value value="60" /><unit value="mmHg" /><system value="http://unitsofmeasure.org" /><code value="mm[Hg]" /></valueQuantity></component></Observation></resource></entry><entry><resource><Condition><id value="D7413A71-CBB4-4117-96BE-2EAE3B78AF3F" /><meta><profile value="http://fhir.nhs.net/StructureDefinition/gpconnect-problem-condition-1-0" /></meta><identifier><value value="0AD1FB74-51C1-42E9-96F7-E1430B241034" /></identifier><patient><reference value="Patient/1A6E1B1C-6340-4663-926C-9CD1306EAAF8" /><display value="Sally Taylor" /></patient><encounter><reference value="Encounter/8F82E1BD-EC8B-46FA-98C9-DBEC9E462A5C" /><display value="Medical consultation on hospital inpatient (procedure)" /></encounter><asserter><reference value="Practitioner/5BF84050-8308-4271-BBC6-F296801714CE" /><display value="Dr Tom Wood" /></asserter><dateRecorded value="2015-02-14" /><code><coding><system value="http://snomed.info/sct" /><code value="87486003" /><display value="Aphasia (finding)" /></coding></code><category><coding><system value="http://fhir.nhs.net/ValueSet/gpconnect-condition-category-1-0" /><code value="PRB" /><display value="Problem" /></coding></category><verificationStatus value="confirmed" /></Condition></resource></entry><entry><resource><Condition><id value="60F8A093-791E-4110-9576-795735FDC405" /><meta><profile value="http://fhir.nhs.net/StructureDefinition/gpconnect-problem-condition-1-0" /></meta><identifier><value value="0FFAB7D0-E267-4661-A74B-1E4DED3C27DA" /></identifier><patient><reference value="Patient/1A6E1B1C-6340-4663-926C-9CD1306EAAF8" /><display value="Sally Taylor" /></patient><encounter><reference value="Encounter/8F82E1BD-EC8B-46FA-98C9-DBEC9E462A5C" /><display value="Medical consultation on hospital inpatient (procedure)" /></encounter><asserter><reference value="Practitioner/5BF84050-8308-4271-BBC6-F296801714CE" /><display value="Dr Tom Wood" /></asserter><dateRecorded value="2015-02-14" /><code><coding><system value="http://snomed.info/sct" /><code value="40739000" /><display value="Dysphagia (disorder)" /></coding></code><category><coding><system value="http://fhir.nhs.net/ValueSet/gpconnect-condition-category-1-0" /><code value="PRB" /><display value="Problem" /></coding></category><verificationStatus value="confirmed" /></Condition></resource></entry><entry><resource><Procedure><id value="4447D8EF-579D-4B3A-BC54-7BF0FD0B3FBF" /><meta><profile value="http://fhir.nhs.net/StructureDefinition/gpconnect-procedure-1-0" /></meta><identifier id="257041DE-E348-4826-A7E3-C38D8066E239" /><subject><reference value="Patient/1A6E1B1C-6340-4663-926C-9CD1306EAAF8" /><display value="Sally Taylor" /></subject><status value="completed" /><code><coding><system value="http://snomed.info/sct" /><code value="235159007" /><display value="Percutaneous endoscopic gastrostomy (procedure)" /></coding></code><bodySite><coding><system value="http://snomed.info/sct" /><code value="110863008" /><display value="Stomach and abdominal wall (combined site) (body structure)" /></coding></bodySite><performer><actor><reference value="Practitioner/30D59E6F-09CF-4FCD-8772-CFA020211B60" /><display value="Dr Matt Smith" /></actor></performer><encounter><reference value="Encounter/8F82E1BD-EC8B-46FA-98C9-DBEC9E462A5C" /><display value="Medical consultation on hospital inpatient (procedure)" /></encounter><location><reference value="Location/1DD5FEB8-79B2-4FBC-BA54-8C1E6332C9A2" /></location></Procedure></resource></entry><entry><resource><Procedure><id value="7941F091-A3CA-4510-924D-3D2DFF5508F4" /><meta><profile value="http://fhir.nhs.net/StructureDefinition/gpconnect-procedure-1-0" /></meta><identifier id="DF37746A-6356-4BEF-8500-C01878BDC150" /><subject><reference value="Patient/1A6E1B1C-6340-4663-926C-9CD1306EAAF8" /><display value="Sally Taylor" /></subject><status value="completed" /><code><coding><system value="http://snomed.info/sct" /><code value="313028001" /><display value="Nail bed procedure (procedure)" /></coding></code><bodySite><coding><system value="http://snomed.info/sct" /><code value="181589003" /><display value="Nail bed of little finger (body structure)" /></coding></bodySite><performer><actor><reference value="Practitioner/30D59E6F-09CF-4FCD-8772-CFA020211B60" /><display value="Dr Matt Smith" /></actor></performer><encounter><reference value="Encounter/61510A46-6F0D-4F11-83D4-6B6158387E69" /><display value="Consultation (procedure)" /></encounter><location><reference value="Location/79B09EA0-0B50-4A54-8654-D1E8FBC0AF8B" /></location></Procedure></resource></entry><entry><resource><Practitioner><id value="649DE1D2-4938-4DA3-B377-E6F015F37EAF" /><meta><profile value="http://fhir.nhs.net/StructureDefinition/gpconnect-practitioner-1-0" /></meta><identifier><system value="http://fhir.nhs.net/Id/sds-user-id" /><value value="C24682468" /></identifier><identifier><system value="http://fhir.nhs.net/Id/sds-role-profile-id" /><value value="AB1233" /></identifier><name><family value="Jones" /><given value="Jane" /></name><practitionerRole><managingOrganization><reference value="Organization/27126680-7BE6-11E5-A837-0800200C9A66" /></managingOrganization><role><coding><system value="http://fhir.nhs.net/ValueSet/sds-job-role-name-1-0" /><code value="R0700" /><display value="Community Nurse" /></coding></role></practitionerRole><communication><coding><system value="http://fhir.nhs.net/ValueSet/human-language-1-0" /><code value="en" /><display value="English" /></coding></communication></Practitioner></resource></entry><entry><resource><Location><id value="B9760E00-99AA-11E5-A837-0800200C9A66" /><meta><profile value="http://fhir.nhs.net/StructureDefinition/gpconnect-location-1-0" /></meta><identifier><use value="official" /><system value="http://fhir.nhs.net/Id/ods-site-code" /><value value="RJZ46" /></identifier><name value="Haemotology Clinics" /><description value="Haematology Clinics of Kings College Hospital" /><type><coding><system value="http://hl7.org/fhir/ValueSet/v3-ServiceDeliveryLocationRoleType" /><code value="HEM" /><display value="Hematology clinic" /></coding></type><telecom><system value="phone" /><value value="02032999009" /><use value="work" /></telecom><telecom><system value="fax" /><value value="02032993445" /><use value="work" /></telecom><telecom><system value="email" /><value value="kch-tr.OutpatientAppointments@nhs.net" /></telecom><address><use value="work" /><line value="Denmark Hill" /><city value="London" /><postalCode value="SE59RS" /><country value="GBR" /></address><physicalType><coding><system value="http://snomed.info/sct" /><code value="310390009" /><display value="Hospital clinic" /></coding></physicalType><managingOrganization><reference value="Organization/27126680-7BE6-11E5-A837-0800200C9A66" /></managingOrganization></Location></resource></entry><entry><resource><Organization><id value="27126680-7BE6-11E5-A837-0800200C9A66" /><meta><profile value="http://fhir.nhs.net/StructureDefinition/gpconnect-organization-1-0" /></meta><identifier><system value="http://fhir.nhs.net/Id/ods-organization-code" /><value value="R1A02" /></identifier><name value="King's College Hospital" /></Organization></resource></entry></Bundle>