<Bundle xmlns="http://hl7.org/fhir"><id value="13daadee-26e1-4d6a-9e6a-7f4af9b58870" /><meta><profile value="http://fhir.nhs.net/StructureDefinition/spine-message-bundle-1-0" /></meta><type value="message" /><entry><resource><MessageHeader><id value="14daadee-26e1-4d6a-9e6a-7f4af9b58870" /><meta><profile value="http://fhir.nhs.net/StructureDefinition/spine-request-messageheader-2-0" /></meta><timestamp value="2015-07-04T09:10:13+00:00" /><event><system value="http://fhir.nhs.net/ValueSet/message-event-2-0" /><code value="urn:nhs:names:services:clinicals-sync:FGMQuery_2_0" /></event><source><name value="Standon NHS Trust" /><software value="Standon Patient Manager" /><contact><system value="phone" /><value value="0207 333777" /></contact><endpoint value="urn:nhs:addressing:asid:047192794540" /></source><destination><name value="SPINE" /><endpoint value="urn:nhs:addressing:asid:990101234567" /></destination><author><reference value="Practitioner/41fe704c-18e5-11e5-b60b-1697f925ec7b" /><display value="Dr Town Wood" /></author><data><reference value="Parameters/7cb73a48-090d-469a-a2b2-04f1e6b11ea1" /></data></MessageHeader></resource></entry><entry><resource><Parameters><id value="7cb73a48-090d-469a-a2b2-04f1e6b11ea1" /><meta><profile value="http://fhir.nhs.net/StructureDefinition/spine-ris-parameters-1-0" /></meta><parameter><name value="RiskIndicator" /><valueString value="FGM" /></parameter><parameter><name value="NHSNumber" /><valueString value="9999999999" /></parameter></Parameters></resource></entry><entry><resource><Practitioner><id value="41fe704c-18e5-11e5-b60b-1697f925ec7b" /><meta><profile value="http://fhir.nhs.net/StructureDefinition/spine-practitioner-2-0" /></meta><identifier><system value="http://fhir.nhs.net/Id/local-practitioner-identifier" /><value value="12456" /></identifier><practitionerRole><managingOrganization><reference value="Organization/99daadee-26e1-4d6a-9e6a-7f4af9b99999" /></managingOrganization></practitionerRole></Practitioner></resource></entry><entry><resource><Organization><id value="99daadee-26e1-4d6a-9e6a-7f4af9b99999" /><meta><profile value="http://fhir.nhs.net/StructureDefinition/spine-organization-1-0" /></meta><identifier><system value="http://fhir.nhs.net/Id/ods-organization-code" /><value value="SDT" /></identifier><name value="Standon NHS Trust " /></Organization></resource></entry></Bundle>