<Substance xmlns="http://hl7.org/fhir"><id value="FAFEE321-1A7E-4E7C-876A-DEBDFB0AAEDF" /><meta><profile value="http://fhir.nhs.net/StructureDefinition/dds-report-substance-1-0" /></meta><contained><Substance><id value="ingr1" /><code><coding><system value="http://snomed.info/sct" /><code value="372687004" /><display value="Amoxicillin" /></coding></code></Substance></contained><contained><Substance><id value="ingr2" /><code><coding><system value="http://snomed.info/sct" /><code value="395938000" /><display value="Clavulanate potassium" /></coding></code></Substance></contained><category><coding><system value="http://hl7.org.fhir/substance-category" /><code value="drug" /><display value="Drug or Medicament" /></coding></category><code><coding><system value="http://snomed.info/sct" /><code value="392259005" /><display value="co-amoxiclav 875mg/125mg tablet" /></coding></code><description value="Augmentin 875" /><ingredient><quantity><numerator><value value="875" /><unit value="mg" /><system value="http://unitsofmeasure.org" /><code value="mg" /></numerator><denominator><value value="1000" /><unit value="mg" /><system value="http://unitsofmeasure.org" /><code value="mg" /></denominator></quantity><substance><reference value="#ingr1" /></substance></ingredient><ingredient><quantity><numerator><value value="125" /><unit value="mg" /><system value="http://unitsofmeasure.org" /><code value="mg" /></numerator><denominator><value value="1000" /><unit value="mg" /><system value="http://unitsofmeasure.org" /><code value="mg" /></denominator></quantity><substance><reference value="#ingr2" /></substance></ingredient></Substance>