<Bundle xmlns="http://hl7.org/fhir"><id value="320d7908-d1ae-48aa-b055-94561076b945" /><meta><profile value="http://fhir.nhs.net/StructureDefinition/cofe-document-bundle-1" /></meta><type value="document" /><entry><resource><Composition><id value="fa2a75a7-4257-422d-92a4-cf537f078e13" /><meta><profile value="http://fhir.nhs.net/StructureDefinition/cofe-cda-header-composition-1" /></meta><extension url="http://fhir.nhs.net/StructureDefinition/extension-cofe-information-recipient-1"><valueReference><reference value="Practitioner/8ece9986-9af0-4882-b0cf-23a96ea7b509" /><display value="Mrs Angela Smith" /></valueReference></extension><extension url="http://fhir.nhs.net/StructureDefinition/extension-cofe-information-recipient-1"><valueReference><reference value="Practitioner/5e414a77-d394-4248-a631-00e45ddb64a0" /><display value="Dr John Lorenzo" /></valueReference></extension><extension url="http://fhir.nhs.net/StructureDefinition/extension-cofe-care-setting-type-1"><valueCodeableConcept><coding><system value="http://snomed.info/sct" /><code value="394576009" /><display value="Accident &amp; emergency" /></coding></valueCodeableConcept></extension><identifier><value id="2b5d459b-df79-4a2b-9b0c-95b2a7ee2ca4" /></identifier><date value="2015-02-17T10:00:00+00:00" /><type><coding><system value="http://snomed.info/sct" /><code value="373942005" /><display value="Discharge summary" /></coding></type><title value="Discharge summary" /><status value="final" /><confidentiality value="V" /><subject><reference value="Patient/31686b67-9f20-4644-9a54-193d2f91de57" /><display value="Mr Richard Smith" /></subject><author><reference value="Practitioner/9ff4a692-c1d7-4dd6-9e0b-f44e77348faf" /><display value="Dr Tom Jones" /></author><custodian><reference value="Organization/e1580b71-99bd-4c5b-8d54-9b420418135f" /><display value="Leeds Community Healthcare NHS Trust" /></custodian><encounter><reference value="Encounter/4f36b35a-ad18-4ea9-a3fb-c893f709e88a" /><display value="Emergency department patient visit" /></encounter><section><title value="Admission details" /><code><coding><system value="http://snomed.info/sct" /><code value="886781000000108" /><display value="Admission details" /></coding></code><text><status value="generated" /><div xmlns="http://www.w3.org/1999/xhtml">
  <table width="100%">
    <tbody>
      <tr>
        <th>Admission method</th>
        <td>Emergency</td>
      </tr>
      <tr>
        <th>Date of admission</th>
        <td>12-Feb-2015</td>
      </tr>
      <tr>
        <th>Source of admission</th>
        <td>Usual place of residence</td>
      </tr>
    </tbody>
  </table>
</div></text><orderedBy><coding><code value="system" /><display value="Sorted by System" /></coding></orderedBy></section><section><title value="Allergies and adverse reactions" /><code><coding><system value="http://snomed.info/sct" /><code value="886921000000105" /><display value="Allergies and adverse reactions" /></coding></code><text><status value="generated" /><div xmlns="http://www.w3.org/1999/xhtml">
  <table width="100%">
    <tbody>
      <tr>
        <th>Causative agent</th>
        <td>Penicillin</td>
      </tr>
      <tr>
        <th>Description of the reaction</th>
        <td>Rash. No swelling/anaphylaxis</td>
      </tr>
    </tbody>
  </table>
</div></text><orderedBy><coding><code value="system" /><display value="Sorted by System" /></coding></orderedBy></section><section><title value="Assessment scales" /><code><coding><system value="http://snomed.info/sct" /><code value="887141000000103" /><display value="Assessment scales" /></coding></code><text><status value="generated" /><div xmlns="http://www.w3.org/1999/xhtml">
  <table width="100%">
    <tbody>
      <tr>
        <th>Assessment scales</th>
        <td>TIMI score=2</td>
      </tr>
    </tbody>
  </table>
</div></text><orderedBy><coding><code value="system" /><display value="Sorted by System" /></coding></orderedBy></section><section><title value="Clinical summary" /><code><coding><system value="http://snomed.info/sct" /><code value="887181000000106" /><display value="Clinical summary" /></coding></code><text><status value="generated" /><div xmlns="http://www.w3.org/1999/xhtml">
  <table width="100%">
    <tbody>
      <tr>
        <th>Clinical Summary</th>
      </tr>
      <tr>
        <td>58 year old man with an acute history of cardiac sounding chest pain lasting around 2 hours.</td>
      </tr>
      <tr>
        <td>Examination unremarkable.</td>
      </tr>
      <tr>
        <td>Inferior ischaemic changes on ECGs and raised Troponin T.</td>
      </tr>
      <tr>
        <td>Coronary angiogram demonstrated diseased RCA, drug eluting stent successfully placed.</td>
      </tr>
      <tr>
        <td>Appropriate secondary prevention medications prescribed and for follow up with Cardiac Rehabilitation team.</td>
      </tr>
    </tbody>
  </table>
</div></text><orderedBy><coding><code value="system" /><display value="Sorted by System" /></coding></orderedBy></section><section><title value="Diagnoses" /><code><coding><system value="http://snomed.info/sct" /><code value="887161000000102" /><display value="Diagnoses" /></coding></code><text><status value="generated" /><div xmlns="http://www.w3.org/1999/xhtml">
  <table width="100%">
    <tbody>
      <tr>
        <th>Diagnosis</th>
      </tr>
      <tr>
        <td>Cardiac chest pain/ACS</td>
      </tr>
    </tbody>
  </table>
</div></text><orderedBy><coding><code value="system" /><display value="Sorted by System" /></coding></orderedBy></section><section><title value="Discharge details" /><code><coding><system value="http://snomed.info/sct" /><code value="886811000000106" /><display value="Discharge details" /></coding></code><text><status value="generated" /><div xmlns="http://www.w3.org/1999/xhtml">
  <table width="100%">
    <tbody>
      <tr>
        <th>Discharging consultant</th>
        <td>Mr Abacus</td>
      </tr>
      <tr>
        <th>Date of discharge</th>
        <td>16-Feb-2015</td>
      </tr>
      <tr>
        <th>Discharge method</th>
        <td>Patient discharged on clinical advice</td>
      </tr>
      <tr>
        <th>Discharge destination</th>
        <td>Usual place of residence</td>
      </tr>
    </tbody>
  </table>
</div></text><orderedBy><coding><code value="system" /><display value="Sorted by System" /></coding></orderedBy></section><section><title value="Information given" /><code><coding><system value="http://snomed.info/sct" /><code value="887221000000101" /><display value="Information given" /></coding></code><text><status value="generated" /><div xmlns="http://www.w3.org/1999/xhtml">
  <table width="100%">
    <tbody>
      <tr>
        <th>Information Given</th>
      </tr>
      <tr>
        <td>Patient seen by Cardiac Rehab and information given regarding diagnosis, lifestyle change and benefits of rehab programme.</td>
      </tr>
      <tr>
        <td>Community follow up planned.</td>
      </tr>
    </tbody>
  </table>
</div></text><orderedBy><coding><code value="system" /><display value="Sorted by System" /></coding></orderedBy></section><section><title value="Investigations and procedures requested" /><code><coding><system value="http://snomed.info/sct" /><code value="887191000000108" /><display value="Investigations and procedures requested" /></coding></code><text><status value="generated" /><div xmlns="http://www.w3.org/1999/xhtml">
  <table width="100%">
    <tbody>
      <tr>
        <th>FBC</th>
        <td>5 x 10<sup>12</sup>/L, WCC: 11.1 x 10<sup>9</sup>/L, Hb: 150 g/dl, neutrophils: 7.0 x 10<sup>9</sup>/L, eosinophils: 0.40 x 10<sup>9</sup>/L, lymphocytes: 3.5x10<sup>9</sup>/L, monocytes: 0.3 x 10<sup>9</sup>/L</td>
      </tr>
      <tr>
        <th>Arterial Blood Gases</th>
        <td>PH: 7.41, pO<sub>2</sub>: 13 kPa, pCO<sub>2</sub>: 6.0kPa, HCO3: 24 mEq/L, B.E.: +2 mmol/L</td>
      </tr>
      <tr>
        <th>ECG</th>
        <td>Inferior ischaemic changes</td>
      </tr>
      <tr>
        <th>Chest Xray</th>
        <td>Normal</td>
      </tr>
    </tbody>
  </table>
</div></text><orderedBy><coding><code value="system" /><display value="Sorted by System" /></coding></orderedBy></section><section><title value="Legal information" /><code><coding><system value="http://snomed.info/sct" /><code value="886961000000102" /><display value="Legal information" /></coding></code><text><status value="generated" /><div xmlns="http://www.w3.org/1999/xhtml">
  <table width="100%">
    <tbody>
      <tr>
        <th>Advance decisions about treatment</th>
      </tr>
      <tr>
        <td>Declines blood products - patient is a Jehovah’s witness</td>
      </tr>
    </tbody>
  </table>
</div></text><orderedBy><coding><code value="system" /><display value="Sorted by System" /></coding></orderedBy></section><section><title value="Medications and medical devices" /><code><coding><system value="http://snomed.info/sct" /><code value="933361000000108" /><display value="Medications and medical devices" /></coding></code><text><status value="generated" /><div xmlns="http://www.w3.org/1999/xhtml">
  <table width="100%">
    <tbody>
      <tr>
        <th>Medication Name</th>
        <td>Ramipril</td>
      </tr>
      <tr>
        <th>Dose</th>
        <td>2.5mg</td>
      </tr>
      <tr>
        <th>Medication Frequency</th>
        <td>OD</td>
      </tr>
      <tr>
        <th>Route</th>
        <td>oral</td>
      </tr>
      <tr>
        <th>Medication Recommendations</th>
        <td>continue</td>
      </tr>
    </tbody>
  </table>
  <table width="100%">
    <tbody>
      <tr>
        <th>Medication Name</th>
        <td>Omeprazole</td>
      </tr>
      <tr>
        <th>Dose</th>
        <td>20mg</td>
      </tr>
      <tr>
        <th>Medication Frequency</th>
        <td>OD/PRN</td>
      </tr>
      <tr>
        <th>Route</th>
        <td>oral</td>
      </tr>
      <tr>
        <th>Medication Recommendations</th>
        <td>continue</td>
      </tr>
    </tbody>
  </table>
  <table width="100%">
    <tbody>
      <tr>
        <th>Medication Name</th>
        <td>Aspirin</td>
      </tr>
      <tr>
        <th>Dose</th>
        <td>75mg</td>
      </tr>
      <tr>
        <th>Medication Frequency</th>
        <td>OD</td>
      </tr>
      <tr>
        <th>Route</th>
        <td>oral</td>
      </tr>
      <tr>
        <th>Medication Recommendations</th>
        <td>continue</td>
      </tr>
    </tbody>
  </table>
  <table width="100%">
    <tbody>
      <tr>
        <th>Medication Name</th>
        <td>Clopidogrel</td>
      </tr>
      <tr>
        <th>Dose</th>
        <td>75mg</td>
      </tr>
      <tr>
        <th>Medication Frequency</th>
        <td>OD</td>
      </tr>
      <tr>
        <th>Route</th>
        <td>oral</td>
      </tr>
      <tr>
        <th>Medication Recommendations</th>
        <td>1 year then stop</td>
      </tr>
    </tbody>
  </table>
  <table width="100%">
    <tbody>
      <tr>
        <th>Medication Name</th>
        <td>Simvastatin</td>
      </tr>
      <tr>
        <th>Dose</th>
        <td>40mg</td>
      </tr>
      <tr>
        <th>Medication Frequency</th>
        <td>OD</td>
      </tr>
      <tr>
        <th>Route</th>
        <td>oral</td>
      </tr>
      <tr>
        <th>Medication Recommendations</th>
        <td>continue</td>
      </tr>
    </tbody>
  </table>
  <table width="100%">
    <tbody>
      <tr>
        <th>Medication Name</th>
        <td>Bisoprolol</td>
      </tr>
      <tr>
        <th>Dose</th>
        <td>5mg</td>
      </tr>
      <tr>
        <th>Medication Frequency</th>
        <td>OD</td>
      </tr>
      <tr>
        <th>Route</th>
        <td>oral</td>
      </tr>
      <tr>
        <th>Medication Recommendations</th>
        <td>Uptitrate according to BP and HR</td>
      </tr>
    </tbody>
  </table>
</div></text><orderedBy><coding><code value="system" /><display value="Sorted by System" /></coding></orderedBy></section><section><title value="Participation in research" /><code><coding><system value="http://snomed.info/sct" /><code value="886751000000102" /><display value="Participation in research" /></coding></code><text><status value="generated" /><div xmlns="http://www.w3.org/1999/xhtml">
  <table width="100%">
    <tbody>
      <tr>
        <th>Participation in research</th>
      </tr>
      <tr>
        <td>None</td>
      </tr>
    </tbody>
  </table>
</div></text><orderedBy><coding><code value="system" /><display value="Sorted by System" /></coding></orderedBy></section><section><title value="Patient and carer concerns" /><code><coding><system value="http://snomed.info/sct" /><code value="887131000000107" /><display value="Patient and carer concerns" /></coding></code><text><status value="generated" /><div xmlns="http://www.w3.org/1999/xhtml">
  <table width="100%">
    <tbody>
      <tr>
        <th>Patient and carer concerns</th>
      </tr>
      <tr>
        <td>Concern re possibility of heart attack/similarity with mothers illness.</td>
      </tr>
      <tr>
        <td>Worried about ability to drive and work/financial implications.</td>
      </tr>
    </tbody>
  </table>
</div></text><orderedBy><coding><code value="system" /><display value="Sorted by System" /></coding></orderedBy></section><section><title value="Person completing record" /><code><coding><system value="http://snomed.info/sct" /><code value="887231000000104" /><display value="Person completing record" /></coding></code><text><status value="generated" /><div xmlns="http://www.w3.org/1999/xhtml">
  <table width="100%">
    <tbody>
      <tr>
        <th>Name</th>
        <td>Dr Paul Rastall</td>
      </tr>
      <tr>
        <th>Designation or role</th>
        <td>On call Dr</td>
      </tr>
      <tr>
        <th>Grade</th>
        <td>SpR</td>
      </tr>
      <tr>
        <th>Specialty</th>
        <td>Medicine</td>
      </tr>
    </tbody>
  </table>
</div></text><orderedBy><coding><code value="system" /><display value="Sorted by System" /></coding></orderedBy></section><section><title value="Plan and requested actions" /><code><coding><system value="http://snomed.info/sct" /><code value="887201000000105" /><display value="Plan and requested actions" /></coding></code><text><status value="generated" /><div xmlns="http://www.w3.org/1999/xhtml">
  <table width="100%">
    <tbody>
      <tr>
        <th>Actions</th>
      </tr>
      <tr>
        <td>GP please continue secondary preventative medication.</td>
      </tr>
      <tr>
        <td>Doses will be uptitrated by Cardiac Rehab team.</td>
      </tr>
    </tbody>
  </table>
</div></text><orderedBy><coding><code value="system" /><display value="Sorted by System" /></coding></orderedBy></section><section><title value="Procedures" /><code><coding><system value="http://snomed.info/sct" /><code value="887171000000109" /><display value="Procedures" /></coding></code><text><status value="generated" /><div xmlns="http://www.w3.org/1999/xhtml">
  <table width="100%">
    <tbody>
      <tr>
        <th>Procedures</th>
      </tr>
      <tr>
        <td>Coronary Angiogram with stent to right coronary artery (RCA)</td>
      </tr>
    </tbody>
  </table>
</div></text><orderedBy><coding><code value="system" /><display value="Sorted by System" /></coding></orderedBy></section><section><title value="Safety alerts" /><code><coding><system value="http://snomed.info/sct" /><code value="886931000000107" /><display value="Safety alerts" /></coding></code><text><status value="generated" /><div xmlns="http://www.w3.org/1999/xhtml">
  <table width="100%">
    <tbody>
      <tr>
        <th>Safety Alerts</th>
      </tr>
      <tr>
        <td>None</td>
      </tr>
    </tbody>
  </table>
</div></text><orderedBy><coding><code value="system" /><display value="Sorted by System" /></coding></orderedBy></section><section><title value="Social context" /><code><coding><system value="http://snomed.info/sct" /><code value="887051000000101" /><display value="Social context" /></coding></code><text><status value="generated" /><div xmlns="http://www.w3.org/1999/xhtml">
  <table width="100%">
    <tbody>
      <tr>
        <th>Household composition</th>
        <td>Lives alone</td>
      </tr>
      <tr>
        <th>Lives alone</th>
        <td>No</td>
      </tr>
      <tr>
        <th>Occupational history</th>
        <td>Self employed electrician</td>
      </tr>
    </tbody>
  </table>
</div></text><orderedBy><coding><code value="system" /><display value="Sorted by System" /></coding></orderedBy></section></Composition></resource></entry><entry><resource><Practitioner><id value="8ece9986-9af0-4882-b0cf-23a96ea7b509" /><meta><profile value="http://hl7.org.uk/fhir/CareConnect-Practitioner-1" /></meta><name><family value="Smith" /><given value="Angela" /><prefix value="Mrs" /></name><telecom><system value="phone" /><value value="01136323200" /><use value="work" /></telecom><practitionerRole><managingOrganization><reference value="f9f24f89-646b-4a19-a6b1-cabfa3b612e1" /><display value="MGP Medical Centre" /></managingOrganization><role><coding><system value="http://fhir.nhs.net/job-role-name-1" /><code value="NR0700" /><display value="Community Nurse" /></coding></role></practitionerRole></Practitioner></resource></entry><entry><resource><Practitioner><id value="5e414a77-d394-4248-a631-00e45ddb64a0" /><meta><profile value="http://hl7.org.uk/fhir/StructureDefinition/CareConnect-practitioner-1" /></meta><identifier><system value="http://fhir.nhs.net/Id/sds-identifier" /><value value="GP12345600" /></identifier><name><family value="Lorenzo" /><given value="John" /><prefix value="Dr" /></name><telecom><system value="phone" /><value value="01634111222" /><use value="work" /></telecom><telecom><system value="email" /><value value="John.Lorenzo@MMC.co.uk" /></telecom><practitionerRole><managingOrganization><reference value="f9f24f89-646b-4a19-a6b1-cabfa3b612e1" /><display value="MGP Medical Centre" /></managingOrganization><role><coding><system value="http://fhir.nhs.net/job-role-name-1" /><code value="NR9100" /><display value="Named GP" /></coding></role></practitionerRole></Practitioner></resource></entry><entry><resource><Organization><id value="f9f24f89-646b-4a19-a6b1-cabfa3b612e1" /><meta><profile value="http://hl7.org.uk/fhir/StructureDefinition/CareConnect-organization-1" /></meta><identifier><system value="http://fhir.nhs.net/Id/ods-organization-code" /><value value="GP123456" /></identifier><type><coding><system value="http://hl7.org/fhir/ValueSet/organization-type" /><code value="prov" /><display value="Healthcare Provider" /></coding></type><name value="MGP Medical Centre" /><telecom><system value="phone" /><value value="01634111223" /><use value="work" /></telecom><telecom><system value="email" /><value value="Admin@MMC.co.uk" /></telecom><address><use value="work" /><line value="1 MGP House" /><line value="Overtown" /><line value="Leeds" /><line value="LS21 7PA" /></address></Organization></resource></entry><entry><resource><Patient><id value="31686b67-9f20-4644-9a54-193d2f91de57" /><meta><profile value="http://hl7.org.uk/fhir/StructureDefinition/CareConnect-patient-1" /></meta><extension url="http://hl7.org.uk/fhir/CareConnect-EthnicCategory-1-Extension"><valueCodeableConcept><coding><system value="http://hl7.org.uk/fhir/CareConnect-EthnicCategory-1" /><code value="A" /><display value="British, Mixed British" /></coding></valueCodeableConcept></extension><extension url="http://hl7.org.uk/fhir/CareConnect-ReligiousAffiliation-1-Extension"><valueCodeableConcept><coding><system value="http://snomed.info/sct" /><code value="160542002" /><display value="Atheist (person)" /></coding></valueCodeableConcept></extension><extension url="http://hl7.org.uk/fhir/CareConnect-OrganDonor-1-Extension"><valueBoolean value="true" /></extension><extension url="http://hl7.org.uk/fhir/CareConnect-ResidentialStatus-1-Extension"><valueCodeableConcept><coding><system value="http://hl7.org.uk/fhir/ValueSet/CareConnect-ResidentialStatus" /><code value="H" /><display value="UK Resident" /></coding></valueCodeableConcept></extension><extension url="http://hl7.org.uk/fhir/CareConnect-TreatmentCategory-1-Extension"><valueCodeableConcept><coding><system value="http://hl7.org.uk/fhir/ValueSet/CareConnect-TreatmentCategory" /><code value="8" /><display value="Not applicable" /></coding></valueCodeableConcept></extension><extension url="http://hl7.org.uk/fhir/CareConnect-NhsCommunication-1-Extension"><extension url="language"><valueCodeableConcept><coding><system value="http://hl7.org.uk/fhir/ValueSet/CareConnect-HumanLanguage" /><code value="en" /><display value="English" /></coding></valueCodeableConcept></extension><extension url="preferred"><valueBoolean value="true" /></extension><extension url="modeOfCommunication"><valueCodeableConcept><coding><system value="http://hl7.org.uk/fhir/ValueSet/CareConnect-LanguageAbilityMode" /><code value="ESP" /><display value="Expressed spoken" /></coding></valueCodeableConcept></extension><extension url="modeOfCommunication"><valueCodeableConcept><coding><system value="http://hl7.org.uk/fhir/ValueSet/CareConnect-LanguageAbilityMode" /><code value="RWR" /><display value="Received written" /></coding></valueCodeableConcept></extension><extension url="communicationProficiency"><valueCodeableConcept><coding><system value="http://hl7.org.uk/fhir/ValueSet/CareConnect-LanguageAbilityProficiency" /><code value="E" /><display value="Excellent" /></coding></valueCodeableConcept></extension><extension url="interpreterRequired"><valueBoolean value="false" /></extension></extension><identifier><extension url="http://hl7.org.uk/fhir/CareConnect-NhsNumberVerificationStatus-1-Extension"><valueCodeableConcept><coding><system value="http://hl7.org.uk/fhir/ValueSet/CareConnect-NhsNumberVerificationStatus" /><code value="01" /><display value="Number present and verified" /></coding></valueCodeableConcept></extension><system value="http://fhir.nhs.net/Id/nhs-number" /><value value="1352465790" /></identifier><active value="true" /><name><use value="usual" /><family value="Smith" /><given value="Richard" /><prefix value="Mr" /></name><gender value="male" /><birthDate value="1957-01-01" /><address><use value="home" /><line value="21, Grove Street" /><city value="Overtown" /><district value="Leeds" /><postalCode value="LS21 1PF" /></address><maritalStatus><coding><system value="http://hl7.org/fhir/marital-status" /><code value="M" /><display value="Married" /></coding></maritalStatus><contact><relationship><coding><system value="http://hl7.org.uk/fhir/ValueSet/CareConnect-PersonRelationshipType" /><code value="01" /><display value="Spouse" /></coding></relationship><name><use value="usual" /><family value="Smith" /><given value="Joy" /><prefix value="Mrs" /></name><telecom><system value="phone" /><value value="0712345678" /><use value="mobile" /></telecom><telecom><system value="email" /><value value="mrssmith@mymail.com" /></telecom><gender value="female" /></contact><careProvider><reference value="Organization/f9f24f89-646b-4a19-a6b1-cabfa3b612e1" /><display value="MGP Medical Centre" /></careProvider></Patient></resource></entry><entry><resource><Practitioner><id value="9ff4a692-c1d7-4dd6-9e0b-f44e77348faf" /><meta><profile value="http://hl7.org.uk/fhir/CareConnect-Practitioner-1" /></meta><name><family value="Jones" /><given value="Tom" /><prefix value="Mr" /></name><telecom><system value="phone" /><value value="01136323200" /><use value="work" /></telecom><address><line value="Leeds Teaching Hospital" /><line value="Great George Street" /><city value="Leeds" /><postalCode value="LS1 3EX" /></address><practitionerRole><managingOrganization><reference value="Organization/e1580b71-99bd-4c5b-8d54-9b420418135f" /><display value="Leeds Community Healthcare NHS Trust" /></managingOrganization><role><coding><system value="http://fhir.nhs.net/ValueSet/sds-job-role-name-1" /><code value="NR0110" /><display value="Specialist Registrar" /></coding></role></practitionerRole></Practitioner></resource></entry><entry><resource><Encounter><id value="4f36b35a-ad18-4ea9-a3fb-c893f709e88a" /><meta><profile value="http://hl7.org.uk/fhir/CareConnect-Encounter-1" /></meta><identifier><value value="13c73015-d8fa-4844-8d68-4f856883eca8" /></identifier><status value="finished" /><type><coding><system value="http://snomed.info/sct" /><code value="4525004" /><display value="Emergency department patient visit" /></coding></type><patient><reference value="Patient/31686b67-9f20-4644-9a54-193d2f91de57" /><display value="Richard Smith" /></patient><period><start value="2015-02-12T09:00:00+00:00" /><end value="2016-02-16T09:00:00+00:00" /></period><hospitalization><dischargeDisposition><coding><system value="http://snomed.info/sct" /><code value="306689006" /><display value="Discharge to home" /></coding></dischargeDisposition></hospitalization><location><location><reference value="Location/01bb1ccc-577b-4a4a-9fb0-9c8fe9f21fa3" /><display value="Accident and Emergency department" /></location></location></Encounter></resource></entry><entry><resource><Location><id value="01bb1ccc-577b-4a4a-9fb0-9c8fe9f21fa3" /><meta><profile value="http://fhir.nhs.net/StructureDefinition/cofe-Location-1" /></meta><name value="Accident and emergency department of Leeds Teaching Hospital" /><type><coding><system value="http://snomed.info/sct" /><code value="225728007" /><display value="Accident and Emergency department" /></coding></type></Location></resource></entry><entry><resource><Organization><id value="e1580b71-99bd-4c5b-8d54-9b420418135f" /><meta><profile value="http://hl7.org.uk/fhir/CareConnect-Organization-1" /></meta><identifier><system value="http://fhir.nhs.net/Id/ods-organization-code" /><value value="RY6" /></identifier><type><coding><system value="http://hl7.org/fhir/ValueSet/organization-type" /><code value="prov" /><display value="Healthcare Provider" /></coding></type><name value="Leeds Community Healthcare NHS Trust" /><telecom><system value="phone" /><value value="01136323200" /><use value="work" /></telecom><address><line value="Leeds Community Healthcare NHS Trust" /><line value="First Floor, Stockdale House" /><line value="Headingley Office Park" /><line value="Victoria Road" /><city value="Leeds" /><postalCode value="LS6 1PF" /></address></Organization></resource></entry></Bundle>