<?xml version="1.0"?>
<!--This example message is provided for illustrative purposes only. It has had no clinical validation. Where there are conflicts with the written message specification or schema, the specification or schema shall be considered to take precedence-->
<List xmlns="http://hl7.org/fhir" xmlns:xhtml="http://www.w3.org/1999/xhtml" xmlns:xsi="http://www.w3.org/2001/XMLSchema-instance" xsi:schemaLocation="http://hl7.org/fhir ../../Schemas/list.xsd">
	<meta>
		<profile value="http://fhir.nhs.net/StructureDefinition/ers-fetchworklist-list-1"/>
	</meta>
	<contained>
		<Practitioner>
			<id value="123456789012"/>
			<meta>
				<profile value="http://fhir.nhs.net/StructureDefinition/ers-practitioner-1"/>
			</meta>
			<identifier>
				<system value="http://fhir.nhs.net/Id/sds-user-id"/>
				<value value="123456789012"/>
			</identifier>
		</Practitioner>
	</contained>
	<contained>
		<Patient>
			<id value="9900002831"/>
			<meta>
				<profile value="http://fhir.nhs.net/StructureDefinition/ers-patient-1"/>
			</meta>
			<identifier>
				<system value="http://fhir.nhs.net/Id/nhs-number"/>
				<value value="9900002831"/>
			</identifier>
		</Patient>
	</contained>
	<status value="current"/>
	<mode value="snapshot"/>
	<entry>
		<extension url="http://fhir.nhs.net/StructureDefinition/extension-ers-referralsforreview-worklistitem-1">
			<extension url="patient">
				<valueReference>
					<reference value="#9900002831"/>
				</valueReference>
			</extension>
			<extension url="priority">
				<valueCodeableConcept>
					<coding>
						<system value="http://fhir.nhs.net/ValueSet/ers-priority-1"/>
						<code value="ROUTINE"/>
					</coding>
				</valueCodeableConcept>
			</extension>
			<extension url="appointmentStart">
				<valueDateTime value="2016-08-12T19:23:53Z"/>
			</extension>
			<extension url="dateWhenBookingMade">
				<valueDateTime value="2016-08-12T19:23:53Z"/>
			</extension>
			<extension url="clinicalInfoFirstSubmitted">
				<valueDateTime value="2016-08-12T19:23:53Z"/>
			</extension>
			<extension url="clinicalInfoLastUpdated">
				<valueDateTime value="2016-08-12T19:23:53Z"/>
			</extension>
			<extension url="clinicalInfoPrinted">
				<valueBoolean value="true"/>
			</extension>
			<extension url="allocatedClinician">
				<valueReference>
					<reference value="#123456789012"/>
				</valueReference>
			</extension>
			<extension url="requestContextStatus">
				<valueCodeableConcept>
					<coding>
						<system value="http://fhir.nhs.net/ValueSet/ers-requestcontextstatus-1"/>
						<code value="NEVER_REVIEWED"/>
						<display value="Never Reviewed"/>
					</coding>
				</valueCodeableConcept>
			</extension>
			<extension url="specialty">
				<valueCodeableConcept>
					<coding>
						<system value="http://fhir.nhs.net/ValueSet/ers-specialty-1"/>
						<code value="DERMATOLOGY"/>
						<display value="Dermatology"/>
					</coding>
				</valueCodeableConcept>
			</extension>
		</extension>
		<item>
			<reference value="ReferralRequest/000234620011"/>
		</item>
	</entry>
</List>
