<?xml version="1.0" encoding="UTF-8"?>
<!--Bundle xml example-->
<Bundle xmlns="http://hl7.org/fhir" xmlns:xsi="http://www.w3.org/2001/XMLSchema-instance" xsi:schemaLocation="http://hl7.org/fhir ../../Schemas/bundle.xsd">
	<id value="b574fc18-5af6-11e6-8b77-86f30ca893d3"/>
	<meta>
		<profile value="http://fhir.nhs.net/StructureDefinition/adw-message-bundle-1-0"/>
	</meta>
	<type value="message"/>
	<entry>
		<resource>
			<MessageHeader>
				<id value="19db5f65-1bad-4ce1-be05-92ff79ab1c8f"/>
				<meta>
					<profile value="http://fhir.nhs.net/StructureDefinition/adw-discharge-notice-accept-response-message-header-1-0"/>
				</meta>
				<timestamp value="2016-07-25T13:30:00+00:00"/>
				<event>
					<system value="http://fhir.nhs.net/ValueSet/adw-message-event-1-0"/>
					<code value="975821000000109"/>
				</event>
				<response>
					<!-- id of the message header this is the response to -->
					<identifier value="19db5f65-1bad-4ce1-be05-92ff79ab1c8f"/>
					<code value="ok"/>
				</response>
				<source>
					<name value="Local Authority Sending System"/>
					<endpoint value="urn:nhs-uk:addressing:ods:V396BB"/>
				</source>
				<destination>
					<name value="Hospital Receiving System"/>
					<endpoint value="urn:nhs-uk:addressing:ods:RFM8C2"/>
				</destination>
				<author>
					<!-- The local authority social worker -->
					<reference value="Practitioner/6babc18b-9f20-4fb1-ba0d-d4e3ae2c7cc7">
					</reference>
				</author>
				<receiver>
					<!-- The hospital liaison -->
					<reference value="Practitioner/49edc68d-cb09-49c9-8edf-285e931042ce"/>
				</receiver>
				<responsible>
					<reference value="Organization/dafc0a1e-e120-4ba7-b638-0ce50a018146"/>
				</responsible>
				<reason>
					<coding>
						<system value="http://fhir.nhs.net/ValueSet/adw-assessment-notice-accept-reason-1-0"/>
						<code value="OFT"/>
						<display value="Other - Free Text"/>
					</coding>
					<text value="Patient from Leeds."/>
				</reason>
				<data>
					<reference value="ReferralRequest/076a300f-5234-4309-95eb-9a64714bbb06"/>
				</data>
			</MessageHeader>
		</resource>
	</entry>
	<entry>
		<resource>
			<ReferralRequest>
				<id value="076a300f-5234-4309-95eb-9a64714bbb06"/>
				<!--This GUID for the id is unique for each type of referral request-->
				<meta>
					<profile value="http://fhir.nhs.net/StructureDefinition/adw-referral-request-accepted-1-0"/>	
				</meta>
				<status value="accepted"/>
				<identifier>
					<value value="311fcae7-32a7-4a8e-a15c-eebae3a246b9"/>
					<!--The value of this identifier will be the same across all referrals to tie all these together-->
				</identifier>
				<patient>
					<reference value="Patient/08fc7a07-394a-4948-a7b0-e0a87c77b231"/>
				</patient>
				<!-- Hospital Liaison, a hospital Discharge Co-ordinator -->
				<requester>
					<reference value="Practitioner/49edc68d-cb09-49c9-8edf-285e931042ce">
					</reference>
				</requester>
				<!-- Local Authority Social Services' Team -->
				<recipient>
					<reference value="Organization/41e0fd49-d1e5-422a-b9ba-643e00a541a4"/>
				</recipient>
				<encounter>
					<reference value="Encounter/2a1def1b-497a-4621-9397-87754a63e4e5"/>
				</encounter>
			</ReferralRequest>
		</resource>
	</entry>
	<entry>
		<resource>
			<Patient>
				<id value="08fc7a07-394a-4948-a7b0-e0a87c77b231"/>
				<!--Identifies the profile being used-->
				<meta>
					<profile value="http://fhir.nhs.net/StructureDefinition/adw-patient-1-0"/>
				</meta>
				<!--Primary patient identifier-->
				<identifier>
					<system value="http://fhir.nhs.net/Id/nhs-number"/>
					<value value="9413946000"/>
				</identifier>
				<identifier>
					<system value="http://fhir.nhs.net/Id/hospital-patient-identifier"/>
					<value value="A1234521"/>
					<assigner>
						<!-- This can be a reference to the profile elsewhere in the message or just text -->
						<reference value="Organization/148eaefb-6dd0-4848-b13d-317bee9f308f"/>
					</assigner>
				</identifier>
				<name>
					<family value="Jones"/>
					<given value="Barry"/>
				</name>
				<gender value="male"/>
				<birthDate value="1941-01-01"/>
			</Patient>
		</resource>
	</entry>
	<entry>
		<resource>
			<Practitioner>
				<id value="49edc68d-cb09-49c9-8edf-285e931042ce"/>
				<meta>
					<!--Identifies the profile being used-->
					<profile value="http://fhir.nhs.net/StructureDefinition/adw-practitioner-1-0"/>
				</meta>
				<name>
					<family value="Gulliver"/>
					<given value="Leticia"/>
				</name>
				<telecom>
					<system value="email"/>
					<value value="leticia.gulliver@nhs.net"/>
				</telecom>
				<telecom>
					<system value="phone"/>
					<value value="0191223344"/>
				</telecom>
				<practitionerRole>
					<managingOrganization>
						<reference value="Organization/148eaefb-6dd0-4848-b13d-317bee9f308f"/>
					</managingOrganization>
					<!-- Indicates the practitioner's role(s) i.e. Discharge co-ordinator-->
					<role>
						<coding>
							<system value="http://fhir.nhs.net/ValueSet/job-role-name-1-0"/>
							<code value="NR2060"/>
							<display value="Discharge coordinator"/>
						</coding>
						<text value="Hospital Liaison"/>
					</role>
				</practitionerRole>
			</Practitioner>
		</resource>
	</entry>
	<entry>
		<resource>
			<Practitioner>
				<id value="6babc18b-9f20-4fb1-ba0d-d4e3ae2c7cc7"/>
				<meta>
					<!--Identifies the profile being used-->
					<profile value="http://fhir.nhs.net/StructureDefinition/adw-practitioner-1-0"/>
				</meta>
				<name>
					<family value="Jones"/>
					<given value="Lee"/>
				</name>
				<telecom>
					<system value="email"/>
					<value value="lee.jones@nhs.net"/>
				</telecom>
				<telecom>
					<system value="phone"/>
					<value value="0191223888"/>
				</telecom>
				<practitionerRole>
					<managingOrganization>
						<reference value="Organization/41e0fd49-d1e5-422a-b9ba-643e00a541a4"/>
					</managingOrganization>
					<role>
						<coding>
							<system value="http://fhir.nhs.net/ValueSet/job-role-name-1-0"/>
							<code value="NR1340"/>
							<display value="Approved Social Worker"/>
						</coding>
						<text value="Local Authority Contact (Social Worker)"/>
					</role>
				</practitionerRole>
			</Practitioner>
		</resource>
	</entry>
	<entry>
		<resource>
			<Organization>
				<id value="148eaefb-6dd0-4848-b13d-317bee9f308f"/>
				<meta>
					<!--Identifies the profile being used-->
					<profile value="http://fhir.nhs.net/StructureDefinition/adw-organization-1-0"/>
				</meta>
				<!--Organisation identifier -->
				<identifier>
					<system value="http://fhir.nhs.net/Id/ods-organization-code"/>
					<value value="RFM8C2"/>
				</identifier>
				<!-- Type of organisation. -->
				<type>
					<coding>
						<system value="http://hl7.org/fhir/ValueSet/organization-type"/>
						<code value="prov"/>
						<display value="Healthcare Provider"/>
					</coding>
					<text value="Hospital"/>
				</type>
				<name value="Hebburn Hospital"/>
			</Organization>
		</resource>
	</entry>
	<entry>
		<resource>
			<Organization>
				<id value="dafc0a1e-e120-4ba7-b638-0ce50a018146"/>
				<meta>
					<!--Identifies the profile being used-->
					<profile value="http://fhir.nhs.net/StructureDefinition/adw-organization-1-0"/>
				</meta>
				<!--Organisation identifier - this example has a locally defined organisation code.-->
				<identifier>
					<system value="http://fhir.nhs.net/Id/ods-organization-code"/>
					<value value="V396BB"/>
				</identifier>
				<!-- Type of organisation. -->
				<type>
					<coding>
						<system value="http://hl7.org/fhir/ValueSet/organization-type"/>
						<code value="govt"/>
						<display value="Government"/>
					</coding>
					<text value="Local Authority"/>
				</type>
				<name value="Hebburn Council"/>
			</Organization>
		</resource>
	</entry>
	<entry>
		<resource>
			<Organization>
				<id value="41e0fd49-d1e5-422a-b9ba-643e00a541a4"/>
				<meta>
					<!--Identifies the profile being used-->
					<profile value="http://fhir.nhs.net/StructureDefinition/adw-social-services-team-organization-1-0"/>
				</meta>
				<!-- Type of organisation. -->
				<type>
					<coding>
						<system value="http://hl7.org/fhir/ValueSet/organization-type"/>
						<code value="team"/>
						<display value="Organizational team"/>
					</coding>
					<text value="Local Authority Social Services' Team"/>
				</type>
				<name value="Hebburn Social Services' Community Team"/>
				<partOf>
					<reference value="Organization/dafc0a1e-e120-4ba7-b638-0ce50a018146"/>
				</partOf>
			</Organization>
		</resource>
	</entry>
	<entry>
		<resource>
			<Encounter>
				<id value="2a1def1b-497a-4621-9397-87754a63e4e5"/>
				<meta>
					<profile value="http://fhir.nhs.net/StructureDefinition/adw-response-encounter-1-0"/>
				</meta>
				<identifier>
					<value value="2562b8b6-c0db-424a-8c6b-0fa43b0d6c2f"/>
				</identifier>
				<status value="in-progress"/>
				<class value="inpatient"/>
				<patient>
					<reference value="Patient/08fc7a07-394a-4948-a7b0-e0a87c77b231"/>
				</patient>
				<location>
					<location>
						<reference value="Location/a33f0b53-41a7-4cb6-9dc5-5fac6bee084c"/>
					</location>
				</location>
				<serviceProvider>
					<reference value="Organization/148eaefb-6dd0-4848-b13d-317bee9f308f"/>
				</serviceProvider>
			</Encounter>
		</resource>
	</entry>
	<entry>
		<resource>
			<Location>
				<id value="a33f0b53-41a7-4cb6-9dc5-5fac6bee084c"/>
				<meta>
					<!--Identifies the profile being used-->
					<profile value="http://fhir.nhs.net/StructureDefinition/adw-location-1-0"/>
				</meta>
				<name value="Collier Ward"/>
				<managingOrganization>
					<reference value="Organization/148eaefb-6dd0-4848-b13d-317bee9f308f"/>
				</managingOrganization>
			</Location>
		</resource>
	</entry>
</Bundle>
