<Bundle xmlns="http://hl7.org/fhir"><id value="320d7908-d1ae-48aa-b055-94561076b945" /><meta><profile value="http://fhir.nhs.net/StructureDefinition/cofe-document-bundle-1" /></meta><type value="document" /><entry><resource><Composition><id value="fa2a75a7-4257-422d-92a4-cf537f078e13" /><meta><profile value="http://fhir.nhs.net/StructureDefinition/cofe-composition-end-of-life-1" /></meta><text><status value="generated" /><div xmlns="http://www.w3.org/1999/xhtml">
  <table width="100%" border="1" style="background-color: #ffffee">
    <tr>
      <td>
        <p style="font-size:20px">
          <b>Patient Care Record - Mrs Diane Hembury</b>
        </p>
        <p style="color:red;font-size:20px">
          <b>NHS Number (Verified) - 6305786860</b>
        </p>
        <p style="font-size:16px">
          <b>Date of Birth:</b> 01-May-1977, 09:05</p>
        <p style="font-size:20px">
          <b>Female</b>
        </p>
        <table width="100%">
          <tbody>
            <tr>
              <td>
                <p class="label" style="font-style:italic"> Communication Language </p>
                <p style="font-weight:bold">English (Excellent - Expressed spoken) <span class="label" style="font-style:italic">Preferred</span></p>
                <p style="font-weight:bold">French (Fair - Expressed spoken) </p>
              </td>
            </tr>
          </tbody>
        </table>
        <table width="60%">
          <tbody align="left">
            <tr>
              <td style="width:20%">
                <i>Home Address</i>
              </td>
              <td style="width:20%">
                <i>Primary Home Address</i>
              </td>
              <td style="width:20%">
                <i>Visit Address</i>
              </td>
            </tr>
            <tr>
              <td style="width:33%;font-weight:bold">120 Grove Street<br />Overtown<br />West Yorkshire<br />LS21 1PT</td>
              <td style="width:33%;font-weight:bold">15 Lucius Street<br />Foxtown<br />Bath<br />BA31 1BT</td>
              <td style="width:33%;font-weight:bold">Room 8<br />2nd floor<br />Flat 2<br />1 Lansdown Place<br />East Bath<br />BA1 5ET</td>
            </tr>
          </tbody>
        </table>
        <table width="100%" cellpadding="5">
          <tbody>
            <tr>
              <th>
                <p style="font-style:italic;text-align: left; font-weight: normal">GP Practice</p>
                <table width="100%" border="0">
                  <tbody align="left">
                    <tr>
                      <td style="width:50%">BIRCHDALE ROAD MEDICAL CENTRE</td>
                    </tr>
                  </tbody>
                </table>
                <table width="50%">
                  <tbody align="left">
                    <tr>
                      <td style="width:25%">Address</td>
                      <td style="width:25%">Phone</td>
                    </tr>
                    <tr>
                      <td style="width:50%;font-weight: normal">NEWHAM CCG<br />E7 8AR</td>
                      <td style="width:50%;font-weight: normal">0123 4567890<br />07890123456</td>
                    </tr>
                  </tbody>
                </table>
                <table width="100%">
                  <tbody align="left">
                    <tr>
                      <td style="width:50%">
                        <p style="font-style:italic;font-weight: normal">GP Practice Code</p>
                      </td>
                    </tr>
                    <tr>
                      <td style="width:50%">F84641</td>
                    </tr>
                  </tbody>
                </table>
                <br />
              </th>
            </tr>
          </tbody>
        </table>
        <br />
      </td>
    </tr>
  </table>
  <br />
  <table width="100%" border="1" style="background-color: #ffffee">
    <tr>
      <td>
        <p style="font-size:16px">
          <b>Document Created:</b> 03-Dec-2015, 08:39</p>
        <p style="font-size:16px">
          <b>Document Owner:</b>Coordinate My Care</p>
        <p style="font-size:16px">
          <b>Authored by:</b> Dr Mandy Shaw - Palliative Care Physician, Coordinate My Care on 02-Jun-2015, 09:05</p>
        <p style="font-size:16px">
          <b>Consent Status:</b>Consent given for electronic record sharing</p>
      </td>
    </tr>
  </table>
  <br />
  <br />
  <table width="100%" border="1" style="color:#000000; background-color:#dddddd">
    <tr>
      <td>
        <p style="font-size:16px">
          <b>Notified To:</b> Mr Sam Sudden - Not Known</p>
        <p style="font-size:16px">
          <b>Home Address:</b>
          <br />1 James Street<br />Govford<br />GV11 7RD</p>
        <p style="font-size:16px">
          <b>Home Phone:</b> 01234567890</p>
        <hr />
        <p style="font-size:16px">
          <b>Notified To:</b> Mrs Samantha Sudden - Not Known</p>
        <p style="font-size:16px">
          <b>Home Address:</b>
          <br />2 John Street<br />Govford<br />GV12 5RE</p>
        <p style="font-size:16px">
          <b>Home Phone:</b> 02468023456</p>
        <hr />
        <p style="font-size:16px">
          <b>Notified To:</b> Mrs Sarah Bloggs - Wife</p>
        <p style="font-size:16px">
          <b>Home Address:</b>
          <br />321 Brighton Rock<br />Gumford<br />East Sussex</p>
        <p style="font-size:16px">
          <b>Home Phone:</b> 01235680246</p>
        <hr />
        <p style="font-size:16px">
          <b>Notified To:</b> Mr John Bloggs - Son</p>
        <p style="font-size:16px">
          <b>Home Address:</b>
          <br />123 Brighton Pier<br />Gumford<br />East Sussex</p>
        <p style="font-size:16px">
          <b>Mobile Phone:</b> 09876543211</p>
        <hr />
        <p style="font-size:16px">
          <b>Notified To:</b> Mrs Sarah Bloggs - Not specified</p>
        <hr />
        <p style="font-size:16px">
          <b>Notified To:</b> Mr Peter Bloggs - Not specified</p>
        <hr />
        <p style="font-size:16px">
          <b>Notified To:</b> Mrs Joseph Balidon - Not specified</p>
        <hr />
        <p style="font-size:16px">
          <b>Notified To:</b> DR SINGARAVELOU B - General Practitioner</p>
        <p style="font-size:16px">
          <b>Notified Organization:</b> Berwick Surgery</p>
        <p style="font-size:16px">
          <b>Work Address:</b>
          <br />36 DEWEY ROAD<br />RM10 8AR</p>
        <p style="font-size:16px">
          <b>DSwitchboard/Office Phone:</b> 01234567890</p>
        <p style="font-size:16px">
          <b>Direct Phone:</b> 02468024680</p>
        <hr />
        <p style="font-size:16px">
          <b>Notified To:</b> Ms E Nurse - District nurse</p>
        <p style="font-size:16px">
          <b>Notified Organization:</b> Bromley Healthcare</p>
        <hr />
        <p style="font-size:16px">
          <b>Notified To:</b> Dr B Community</p>
        <p style="font-size:16px">
          <b>Notified Organization:</b> Brent Community Health</p>
        <hr />
        <p style="font-size:16px">
          <b>Notified To:</b> Mrs G Palliative</p>
        <p style="font-size:16px">
          <b>Notified Organization:</b> Ealing Community Team</p>
        <hr />
        <p style="font-size:16px">
          <b>Notified To:</b> Dr A Hospice</p>
        <p style="font-size:16px">
          <b>Notified Organization:</b> St Joseph's Hospice</p>
        <hr />
        <p style="font-size:16px">
          <b>Notified To:</b> Dr A Hospice</p>
        <p style="font-size:16px">
          <b>Notified Organization:</b> St Luke's Hospice</p>
        <hr />
        <p style="font-size:16px">
          <b>Notified To:</b> Dr F Consultant - Hospital consultant</p>
        <p style="font-size:16px">
          <b>Notified Organization:</b> Barnet and Chase Farm</p>
        <hr />
        <p style="font-size:16px">
          <b>Notified To:</b> Dr G Riley - Hospital consultant</p>
        <p style="font-size:16px">
          <b>Notified Organization:</b> Royal Marsden</p>
        <hr />
        <p style="font-size:16px">
          <b>Notified To:</b>Ms H Other</p>
        <p style="font-size:16px">
          <b>Notified Organization:</b> Care Team</p>
        <hr />
        <p style="font-size:16px">
          <b>Notified To:</b>GP Daytime (key contact)</p>
        <p style="font-size:16px">
          <b>Notified Organization:</b> Berwick Surgery</p>
        <hr />
        <p style="font-size:16px">
          <b>Notified Organization:</b> Berwick Surgery</p>
        <hr />
        <p style="font-size:16px">
          <b>Notified To:</b>Ms A Care-Contact - Care Assistant</p>
        <p style="font-size:16px">
          <b>Notified Organization:</b> Care Contact</p>
        <hr />
      </td>
    </tr>
  </table>
  <br />
  <br />
</div></text><extension url="http://fhir.nhs.net/StructureDefinition/extension-cofe-information-recipient-1"><valueReference><reference value="Organization/575399c4-b48a-4faf-83b5-fa8a6474a7c6" /></valueReference></extension><extension url="http://fhir.nhs.net/StructureDefinition/extension-cofe-participant-1"><valueReference><reference value="RelatedPerson/1ae5a092-880b-4fe8-af9a-145124a1357d" /></valueReference></extension><extension url="http://fhir.nhs.net/StructureDefinition/extension-cofe-participant-1"><valueReference><reference value="RelatedPerson/5ea1331b-c578-48cd-a596-13a6d4ebd06a" /></valueReference></extension><extension url="http://fhir.nhs.net/StructureDefinition/extension-cofe-participant-1"><valueReference><reference value="RelatedPerson/1ed3fa7b-0f20-4ffd-8d55-8eb4994a716a" /></valueReference></extension><extension url="http://fhir.nhs.net/StructureDefinition/extension-cofe-participant-1"><valueReference><reference value="RelatedPerson/1f0d8c47-0712-4d1c-863a-b80f00ddb4ca" /></valueReference></extension><extension url="http://fhir.nhs.net/StructureDefinition/extension-cofe-participant-1"><valueReference><reference value="RelatedPerson/b871ba7b-d6bb-46bf-8f5b-12994f51fd65" /></valueReference></extension><extension url="http://fhir.nhs.net/StructureDefinition/extension-cofe-participant-1"><valueReference><reference value="RelatedPerson/0d4ddfba-b36a-4435-8310-600be295cab9" /></valueReference></extension><extension url="http://fhir.nhs.net/StructureDefinition/extension-cofe-participant-1"><valueReference><reference value="RelatedPerson/892fa432-9a51-4736-9dcd-02ec3107f872" /></valueReference></extension><extension url="http://fhir.nhs.net/StructureDefinition/extension-cofe-participant-1"><valueReference><reference value="Practitioner/e16e1d5a-17a9-40f4-a5b8-3d376a99fd38" /></valueReference></extension><extension url="http://fhir.nhs.net/StructureDefinition/extension-cofe-participant-1"><valueReference><reference value="Practitioner/4c096051-7f73-449f-b552-3b4de5825c77" /></valueReference></extension><extension url="http://fhir.nhs.net/StructureDefinition/extension-cofe-participant-1"><valueReference><reference value="Practitioner/d47e67c6-5698-4638-9c5b-a29d13738249" /></valueReference></extension><extension url="http://fhir.nhs.net/StructureDefinition/extension-cofe-participant-1"><valueReference><reference value="Practitioner/2ceb2362-1891-42fc-aacf-a4edd554468a" /></valueReference></extension><extension url="http://fhir.nhs.net/StructureDefinition/extension-cofe-participant-1"><valueReference><reference value="Practitioner/eaad094c-58e9-448e-bf23-618912054849" /></valueReference></extension><extension url="http://fhir.nhs.net/StructureDefinition/extension-cofe-participant-1"><valueReference><reference value="Practitioner/7291998c-9c2f-48ae-a9b7-58a0772bedf4" /></valueReference></extension><extension url="http://fhir.nhs.net/StructureDefinition/extension-cofe-participant-1"><valueReference><reference value="Practitioner/f1b6593e-25f4-4b2f-b750-009037c4d731" /></valueReference></extension><extension url="http://fhir.nhs.net/StructureDefinition/extension-cofe-participant-1"><valueReference><reference value="Practitioner/d17dc85d-87bc-43a2-9fc3-12ff89870bd6" /></valueReference></extension><extension url="http://fhir.nhs.net/StructureDefinition/extension-cofe-participant-1"><valueReference><reference value="Practitioner/d17dc85d-87bc-43a2-9fc3-12ff89870bd6" /></valueReference></extension><extension url="http://fhir.nhs.net/StructureDefinition/extension-cofe-participant-1"><valueReference><reference value="Practitioner/2ceb2362-1891-42fc-aacf-a4edd554468a" /></valueReference></extension><extension url="http://fhir.nhs.net/StructureDefinition/extension-cofe-participant-1"><valueReference><reference value="Practitioner/bacfadf4-d333-4199-9005-c1646dd5286f" /></valueReference></extension><extension url="http://fhir.nhs.net/StructureDefinition/extension-cofe-participant-1"><valueReference><reference value="Practitioner/bacfadf4-d333-4199-9005-c1646dd5286f" /></valueReference></extension><extension url="http://fhir.nhs.net/StructureDefinition/extension-cofe-participant-1"><valueReference><reference value="Practitioner/80a64935-6782-47bd-8cc0-05d2bf0222f8" /></valueReference></extension><extension url="http://fhir.nhs.net/StructureDefinition/extension-cofe-performer-1"><valueUri value="http://fhir.nhs.net/StructureDefinition/extension-cofe-performer-1" /></extension><extension url="http://fhir.nhs.net/StructureDefinition/extension-cofe-authorization-1"><valueUri value="http://fhir.nhs.net/StructureDefinition/extension-cofe-authorization-1" /></extension><identifier><value value="faaf8fd7-870f-499a-b565-7d93339e258e" /></identifier><date value="2015-07-11T10:11:15+00:00" /><type><coding><system value="http://snomed.info/sct" /><code value="861421000000109" /><display value="End of Life Care Coordination Summary" /></coding></type><title value="End of Life Care Coordination Summary" /><status value="final" /><confidentiality value="V" /><subject><reference value="Patient/31686b67-9f20-4644-9a54-193d2f91de57" /><display value="Mrs Diane Hembury" /></subject><author><reference value="Practitioner/924ad2f1-63dc-40cf-9f54-8da0fa3ba096" /><display value="Dr Mandy Shaw" /></author><custodian><reference value="Organization/1474506e-609d-412e-952b-4bc74d769038" /><display value="Royal Marsden" /></custodian><section><title value="Individual requirements" /><code><coding><system value="http://snomed.info/sct" /><code value="1052901000000109" /></coding></code><text><status value="generated" /><div xmlns="http://www.w3.org/1999/xhtml">
  <h2>Individual requirements</h2>
  <table style="color:#000000; background-color:#dddddd" width="100%" border="1">
    <tbody>
      <tr>
        <th>Communication preferences</th>
      </tr>
      <tr>
        <td>French spoken, English preferred</td>
      </tr>
    </tbody>
  </table>
  <br />
  <table style="color:#000000; background-color:#dddddd" width="100%" border="1">
    <tbody>
      <tr>
        <th>Disabilities</th>
      </tr>
      <tr>
        <td>1.Hearing loss</td>
      </tr>
      <tr>
        <td>2.Visual Impairment</td>
      </tr>
      <tr>
        <td>3.Difficulty with Verbal communication</td>
      </tr>
    </tbody>
  </table>
  <br />
  <table style="color:#000000; background-color:#dddddd" width="100%" border="1">
    <tbody>
      <tr>
        <th>Disability details</th>
      </tr>
      <tr>
        <td> No further information is available</td>
      </tr>
    </tbody>
  </table>
  <br />
</div></text></section><section><title value="Diagnosis" /><code><coding><system value="http://snomed.info/sct" /><code value="887161000000102" /></coding></code><text><status value="generated" /><div xmlns="http://www.w3.org/1999/xhtml">
  <h2>Diagnoses</h2>
  <table style="color:#000000; background-color:#dddddd" width="100%" border="1">
    <tbody>
      <tr>
        <th align="left">Diagnosis</th>
        <th align="left">Main?</th>
        <th align="left">Condition Date</th>
        <th align="left">End Date</th>
        <th align="left">Details</th>
        <th align="left">Long-term?</th>
        <th align="left">Life-threatening?</th>
      </tr>
      <tr>
        <td>Cancer Diagnosis – Independent Multiple Sites</td>
        <td>Yes</td>
        <td>10-May-2006</td>
        <td />
        <td>cancer diagnosis details</td>
        <td>Yes</td>
        <td>No</td>
      </tr>
      <tr>
        <td>Chronic Obstructive Pulmonary Disease (COPD)</td>
        <td />
        <td>01 Feb 2015</td>
        <td>02 Feb 2015</td>
        <td>Diagnosis 2</td>
        <td>Yes</td>
        <td>Yes</td>
      </tr>
    </tbody>
  </table>
  <br />
  <table style="color:#000000; background-color:#dddddd" width="100%" border="1">
    <tbody>
      <tr>
        <th align="left">Diagnosis</th>
        <th align="left">Diagnosis Date</th>
        <th align="left">Diagnosis Stage</th>
        <th align="left">Further Comment</th>
      </tr>
      <tr>
        <td>Widespread metastatic malignant neoplastic disease</td>
        <td>02-Jan-2016</td>
        <td>Early onset</td>
        <td>Patient and carer aware of condition</td>
      </tr>
      <tr>
        <td>Chronic obstructive lung disease</td>
        <td>02-Jan-2016</td>
        <td>Advanced - life threatening</td>
        <td>Patient aware of condition</td>
      </tr>
    </tbody>
  </table>
  <br />
  <table style="color:#000000; background-color:#dddddd" width="100%" border="1">
    <tbody>
      <tr>
        <th align="left" colspan="7">Diagnosis awareness</th>
      </tr>
      <tr>
        <td style="width:50%">Is the Patient Aware of Diagnosis?</td>
        <td style="width:50%">patient aware of diagnosis</td>
      </tr>
      <tr>
        <td>Is the Carer Aware of Diagnosis?</td>
        <td>carer aware of diagnosis</td>
      </tr>
    </tbody>
  </table>
  <br />
</div></text><entry><reference value="Condition/e3d96a2e-abbe-4e78-93dd-e5870fc4f796" /><display value="COFE-Diagnosis-Condition-Example-1" /></entry><entry><reference value="Condition/98d29b5a-da2b-4f48-99b8-53924642c9fd" /><display value="COFE-Diagnosis-Condition-Example-2" /></entry></section><section><title value="Relevant past medical, surgical and mental health history" /><code><coding><system value="http://snomed.info/sct" /><code value="933271000000106" /></coding></code><text><status value="generated" /><div xmlns="http://www.w3.org/1999/xhtml">
  <h2>Relevant past medical, surgical and mental health history</h2>
  <table style="color:#000000; background-color:#dddddd" width="100%" border="1">
    <tbody>
      <tr>
        <th colspan="2" align="left">Significant Past Medical History</th>
      </tr>
      <tr>
        <td style="width:50%">Anterior chest pain</td>
        <td style="width:50%">Secondary malignant neoplasm of chest wall</td>
      </tr>
    </tbody>
  </table>
  <br />
</div></text><entry><reference value="Observation/f7c59646-abf9-4e9b-bb56-48ce17b84534" /><display value="COFE-SPMH-Observation-1-Example-1" /></entry></section><section><title value="Medications and medical devices" /><code><coding><system value="http://snomed.info/sct" /><code value="933361000000108" /></coding></code><text><status value="generated" /><div xmlns="http://www.w3.org/1999/xhtml">
  <h2>Medications and medical devices</h2>
  <table style="color:#000000; background-color:#dddddd" width="100%" border="1">
    <caption>Medication status</caption>
    <tbody>
      <tr>
        <th colspan="2">Relevant previous medications</th>
      </tr>
      <tr>
        <td>Has patient been prescribed strong opioids?</td>
        <td>Y</td>
      </tr>
    </tbody>
  </table>
  <br />
  <table style="color:#000000; background-color:#dddddd" width="100%" border="1">
    <caption>Medication status: Current Medications</caption>
    <tbody>
      <tr>
        <th>#</th>
        <th>Medication name</th>
        <th>Indication</th>
        <th>Route</th>
        <th>Dose</th>
        <th>Medication frequency</th>
        <th>Additional instructions</th>
        <th>Start Date</th>
        <th>End Date</th>
      </tr>
      <tr>
        <td>1</td>
        <td> Paroxetine 10mg/5ml oral suspension </td>
        <td>Antidepressant</td>
        <td>Nasogastric</td>
        <td>10mg</td>
        <td>daily</td>
        <td>Patient must be prescribed Brand1</td>
        <td>12-Feb-2015</td>
        <td>26-Feb-2015</td>
      </tr>
      <tr>
        <td>2</td>
        <td> Glycerol 2g suppositories </td>
        <td>Constipation</td>
        <td>Rectal</td>
        <td>2g</td>
        <td>4 hourly</td>
        <td>Patient must be prescribed Brand2</td>
        <td>12-Feb-2015</td>
        <td>26-Feb-2015</td>
      </tr>
    </tbody>
  </table>
  <br />
  <table style="color:#000000; background-color:#dddddd" width="100%" border="1">
    <caption>Medication status: Just in Case Medication</caption>
    <tbody>
      <tr>
        <th>#</th>
        <th>Medication name</th>
        <th>Type of Drug</th>
        <th>Route</th>
        <th>Dose</th>
        <th>Medication frequency</th>
        <th>Additional instructions</th>
        <th>Start Date</th>
        <th>End Date</th>
      </tr>
      <tr>
        <td>1</td>
        <td> Midazolam 10mg/10ml inj pre-filled syringes </td>
        <td>IV/IM Anxiolytic/Sedative</td>
        <td>Intramuscular</td>
        <td>10mg</td>
        <td>3 times</td>
        <td>Brand3</td>
        <td>12-Feb-2015</td>
        <td>03-Feb-2016</td>
      </tr>
      <tr>
        <td>2</td>
        <td> Diazepam 5mg/2.5ml rectal solution tube </td>
        <td>Rectal Anticonvulsant</td>
        <td>Rectal</td>
        <td>5mg</td>
        <td>20 times</td>
        <td>Brand4</td>
        <td>12-Feb-2015</td>
        <td>11-Feb-2016</td>
      </tr>
    </tbody>
  </table>
  <br />
</div></text><entry><reference value="Observation/6cca2c2b-f0ae-4d4e-9400-d2400c3a860a" /><display value="COFE-MedicationsAdministered-MedicationStatement-1-Example-1" /></entry><entry><reference value="Observation/14764813-c1b0-43a8-aee8-4559ec4671ad" /><display value="COFE-MedicationsAdministered-MedicationStatement-1-Example-1" /></entry><entry><reference value="Observation/ab7bb7d8-99ae-4cce-a6f8-195259b13aa1" /><display value="COFE-MedicationsAdministered-MedicationStatement-1-Example-1" /></entry><entry><reference value="Observation/6c85ed8c-6df0-44db-93df-197669636896" /><display value="COFE-MedicationsAdministered-MedicationStatement-1-Example-1" /></entry></section><section><title value="Allergies and adverse reactions" /><code><coding><system value="http://snomed.info/sct" /><code value="886921000000105" /></coding></code><text><status value="generated" /><div xmlns="http://www.w3.org/1999/xhtml">
  <h2>Allergies and adverse reactions</h2>
  <table style="color:#000000; background-color:#dddddd" width="100%" border="1">
    <tbody>
      <tr>
        <th>Causative agent</th>
        <th>Description of the reaction</th>
      </tr>
      <tr>
        <td style="width:50%">Sticking plaster</td>
        <td>Contact dermatitis caused by chemical</td>
      </tr>
      <tr>
        <td>Penicillin</td>
        <td>Penicillin adverse reaction</td>
      </tr>
      <tr>
        <td>Midazolam 10mg/5ml oral solution</td>
        <td>Mazindol adverse reaction</td>
      </tr>
    </tbody>
  </table>
  <br />
  <p style="font-weight:bold">These diagnosis are from coded entries below</p>
  <table style="color:#000000; background-color:#dddddd" width="100%" border="1">
    <tbody>
      <tr>
        <th>Causative Agent</th>
        <td style="width:50%">Lanolin oil</td>
      </tr>
      <tr>
        <th colspan="2">Reaction details</th>
      </tr>
      <tr>
        <th>Reaction</th>
        <td>supraglottic swelling</td>
      </tr>
      <tr>
        <th>Date Recorded</th>
        <td>30-Sep-2016</td>
      </tr>
      <tr>
        <th>Severity of the Adverse Reaction</th>
        <td>moderate</td>
      </tr>
      <tr>
        <th>Certainty</th>
        <td>Probable diagnosis</td>
      </tr>
      <tr>
        <th>Comment</th>
        <td>Patient inhaled lanolin oil from new jumper on first wear.</td>
      </tr>
      <tr>
        <th>Type of reaction</th>
        <td>Allergic Reaction</td>
      </tr>
      <tr>
        <th>Allergy Evidence</th>
        <td>Proven by prick test</td>
      </tr>
      <tr>
        <th>Probability of Recurrence</th>
        <td>Almost certain probability of recurrence</td>
      </tr>
      <tr>
        <th>Date First Experienced</th>
        <td>31-Aug-2016</td>
      </tr>
    </tbody>
  </table>
  <br />
  <p style="font-weight:bold">This is from code example below that's done in text (originalText)</p>
  <table style="color:#000000; background-color:#dddddd" width="100%" border="1">
    <tbody>
      <tr>
        <th>Causative Agent</th>
        <td style="width:50%">Cat dander</td>
      </tr>
      <tr>
        <th colspan="2">Reaction details</th>
      </tr>
      <tr>
        <th>Reaction</th>
        <td>Uncontrollable sneezing</td>
      </tr>
      <tr>
        <th>Date Recorded</th>
        <td>26-Sep-2016</td>
      </tr>
      <tr>
        <th>Severity</th>
        <td>Severe</td>
      </tr>
      <tr>
        <th>Certainty</th>
        <td>Confirmed present</td>
      </tr>
      <tr>
        <th>Comment</th>
        <td>Patient has recently purchased a cat</td>
      </tr>
      <tr>
        <th>Type of reaction</th>
        <td>Unknown</td>
      </tr>
      <tr>
        <th>Allergy Evidence</th>
        <td>Confirmed by challenge test</td>
      </tr>
      <tr>
        <th>Probability of Recurrence</th>
        <td>Almost certain probability of recurrence</td>
      </tr>
      <tr>
        <th>Date First Experienced</th>
        <td>Since childhood</td>
      </tr>
    </tbody>
  </table>
  <br />
  <p style="font-weight:bold">This is an example of no allergies found</p>
  <br />
No known drug allergies or adverse reactions
<br /><p style="font-weight:bold">This a coded example from below with minimum information</p><table style="color:#000000; background-color:#dddddd" width="100%" border="1"><tbody><tr><th>Causative Agent</th><td style="width:50%">aspirin</td></tr><tr><th colspan="2">Reaction details</th></tr><tr><th>Date Recorded</th><td>18-May-2016</td></tr><tr><th>Type of reaction</th><td>Unknown</td></tr></tbody></table><br /></div></text><entry><reference value="AllergyIntolerence/97f0402c-ecf2-4d41-aa56-e6028f097081" /><display value="COFE-AllergicOrAdverseReactions-AllergyIntolerence-Example-1" /></entry><entry><reference value="AllergyIntolerence/caccc801-17a9-4c65-948a-defa33f4ae90" /><display value="COFE-AllergicOrAdverseReactions-AllergyIntolerence-Example-2" /></entry><entry><reference value="AllergyIntolerence/f81fe70b-53e4-45fc-ad0d-d428a77468be" /><display value="COFE-AllergicOrAdverseReactions-AllergyIntolerence-Example-2" /></entry><entry><reference value="AllergyIntolerence/c33db1ed-17c1-493c-ab85-b641302b3f58" /><display value="COFE-AllergicOrAdverseReactions-AllergyIntolerence-Example-2" /></entry><entry><reference value="AllergyIntolerence/7f09f0c8-21aa-431f-a961-88c232b6cae3" /><display value="COFE-AllergicOrAdverseReactions-AllergyIntolerence-Example-2" /></entry><entry><reference value="AllergyIntolerence/2d79d6c9-dbe2-4455-8baa-da3bba456616" /><display value="COFE-AllergicOrAdverseReactions-AllergyIntolerence-Example-2" /></entry></section><section><title value="Safety Alerts" /><code><coding><system value="http://snomed.info/sct" /><code value="886931000000107" /></coding></code><text><status value="generated" /><div xmlns="http://www.w3.org/1999/xhtml">
  <h2>Safety Alerts</h2>
  <table style="color:#000000; background-color:#dddddd" width="100%" border="1">
    <tbody>
      <tr>
        <th align="left" colspan="2">Risks to others</th>
      </tr>
      <tr>
        <td>Registered with violent patient scheme</td>
        <td>Patient has shown violent acts towards others</td>
      </tr>
    </tbody>
  </table>
  <br />
  <table style="color:#000000; background-color:#dddddd" width="100%" border="1">
    <tbody>
      <tr>
        <th align="left" colspan="2">Risks to self</th>
      </tr>
      <tr>
        <td>Risk to health associated with overweight and obesity, at high risk</td>
        <td>Patient has low self-esteem.</td>
      </tr>
    </tbody>
  </table>
  <br />
</div></text><entry><reference value="Flag/1df994ec-ce2b-462e-9488-c3c977fe76cd" /><display value="COFE-RiskFlag-1-Example-1" /></entry><entry><reference value="Flag/b6e9e9ce-4e70-4388-8846-58ee39707f00" /><display value="COFE-RiskFlag-1-Example-2" /></entry></section><section><title value="Legal Information" /><code><coding><system value="http://snomed.info/sct" /><code value="886961000000102" /></coding></code><text><status value="generated" /><div xmlns="http://www.w3.org/1999/xhtml">
  <h2>Legal Information</h2>
  <table style="color:#000000; background-color:#dddddd" width="100%" border="1">
    <tbody>
      <tr>
        <th align="left" colspan="2">Advance decision to refuse treatment (ADRT)</th>
      </tr>
      <tr>
        <td style="width:50%">EOL Patient Advance Decision to Refuse Treatment</td>
        <td style="width:50%">Has advance decision to refuse treatment (Mental Capacity Act 2005)</td>
      </tr>
      <tr>
        <td>EOL Patient Advance Decision to Refuse Treatment Docs Location</td>
        <td>EOL ADRT document in top desk drawer in the patient's living room</td>
      </tr>
      <tr>
        <td>EOL Patient Advance Decision to Refuse Treatment Discussed</td>
        <td>Has involved healthcare professional in discussion about advance decision to refuse treatment (Mental Capacity Act 2005)</td>
      </tr>
    </tbody>
  </table>
  <br />
  <table style="color:#000000; background-color:#dddddd" width="100%" border="1">
    <tbody>
      <tr>
        <th align="left" colspan="2">Safeguarding issues</th>
      </tr>
      <tr>
        <td style="width:50%">Safeguarding intervention</td>
        <td style="width:50%">Safeguarding adults protection plan agreed.</td>
      </tr>
    </tbody>
  </table>
  <br />
  <table style="color:#000000; background-color:#dddddd" width="100%" border="1">
    <tbody>
      <tr>
        <th align="left" colspan="2">Lasting power of attorney for personal welfare or court-appointed deputy</th>
      </tr>
      <tr>
        <td style="width:50%">Has appointed person with personal welfare lasting power of attorney with authority for life sustaining decisions (Mental Capacity Act 2005)</td>
        <td style="width:50%">Sister: Louise Hembury</td>
      </tr>
    </tbody>
  </table>
  <br />
  <table style="color:#000000; background-color:#dddddd" width="100%" border="1">
    <tbody>
      <tr>
        <th align="left" colspan="2">Mental Health Act or equivalent status</th>
      </tr>
      <tr>
        <td style="width:50%">Finding of legal status under Mental Health Act 1983</td>
        <td style="width:50%">Subject to community treatment order under Section 17A of Mental Health Act 1983 (England and Wales)</td>
      </tr>
    </tbody>
  </table>
</div></text><entry><reference value="Observation/ccfd85b9-5b5e-44f7-a8d4-500b7b0864bd" /><display value="COFE-ADTRT-Observation-1-Example-1" /></entry><entry><reference value="Observation/bc14a26f-beab-4fb7-b34b-9b5f1b634b3c" /><display value="COFE-Safeguarding-Observation-1-Example-1" /></entry><entry><reference value="Observation/ff15fe40-2251-4f79-a5aa-93239712df86" /><display value="COFE-LastingPowerOfAttorney-1-Example-1" /></entry></section><section><title value="Social context" /><code><coding><system value="http://snomed.info/sct" /><code value="887051000000101" /></coding></code><text><status value="generated" /><div xmlns="http://www.w3.org/1999/xhtml">
  <h2>Social Context</h2>
  <table style="color:#000000; background-color:#dddddd" width="100%" border="1">
    <tbody>
      <tr>
        <th>Household composition</th>
      </tr>
      <tr>
        <td>Lives with partner</td>
      </tr>
      <tr>
        <td>Lack of space in house</td>
      </tr>
    </tbody>
  </table>
  <br />
  <table style="color:#000000; background-color:#dddddd" width="100%" border="1">
    <tbody>
      <tr>
        <th>Mobility or Disability Observations</th>
      </tr>
      <tr>
        <td>Does not drive a vehicle</td>
      </tr>
      <tr>
        <td>Disqualified from driving due to excess alcohol</td>
      </tr>
    </tbody>
  </table>
  <br />
</div></text><entry><reference value="Observation/f6231c77-fc41-4e2a-bf18-08e22b450a22" /><display value="COFE-Housing-Observation-1-Example-1" /></entry><entry><reference value="Observation/33dfe095-3ba3-4a45-92a7-cf2c135773a3" /><display value="COFE-Mobility-Observation-1-Example-1" /></entry></section><section><title value="Person and carer concerns, expectations and wishes" /><code><coding><system value="http://fhir.nhs.net/ValueSet/fhir-observation-1" /><code value="887131000000107" /></coding></code><text><status value="generated" /><div xmlns="http://www.w3.org/1999/xhtml">
  <h2>End of life preferences</h2>
  <table style="color:black; background-color:#dddddd" width="100%" border="1">
    <tbody>
      <tr>
        <th colspan="2">End of life preferences</th>
      </tr>
      <tr>
        <td>Patient’s preferred place of care</td>
        <td>1.Home</td>
      </tr>
      <tr>
        <td>Patient’s preferred place of death</td>
        <td>2.Care Home</td>
      </tr>
    </tbody>
  </table>
  <br />
</div></text></section><section><title value="Crisis Care Plan" /><code><coding><system value="http://snomed.info/sct" /><code value="325681000000102" /></coding></code><text><status value="generated" /><div xmlns="http://www.w3.org/1999/xhtml">
  <h2>Crisis Care Plan</h2>
  <table width="100%" border="1" style="color:#000000; background-color:#dddddd">
    <tbody>
      <tr>
        <th align="left" colspan="2">Anticipatory actions</th>
      </tr>
      <tr>
        <td>In Case of Pain Crises</td>
        <td>Administer Ibuprofen, two 200mg tablets every four to six hours</td>
      </tr>
      <tr>
        <td>In Case of Breathlessness</td>
        <td>Administer oxygen</td>
      </tr>
      <tr>
        <td>In Case of Nausea/Vomiting</td>
        <td>Administer Domperidone, 10 mg up to 3 times daily</td>
      </tr>
    </tbody>
  </table>
  <br />
  <table width="100%" border="1" style="color:#000000; background-color:#dddddd">
    <tbody>
      <tr>
        <th style="font-size:20px" align="left" colspan="2">Cardio-pulmonary resuscitation (CPR) decision</th>
      </tr>
      <tr>
        <td>Has a discussion regarding CPR taken place with the patient?</td>
        <td>1.Yes</td>
      </tr>
      <tr>
        <td>Should CPR commence?</td>
        <td>2.No</td>
      </tr>
      <tr>
        <td>Date CPR decision made</td>
        <td>11-Feb-2015</td>
      </tr>
      <tr>
        <td>EOL Do Not Attempt Cardio-pulmonary Resuscitation Review Date</td>
        <td>02-Jun-2016</td>
      </tr>
      <tr>
        <td>EOL Do Not Attempt Cardio-pulmonary Resuscitation</td>
        <td>Not for attempted cardiopulmonary resuscitation</td>
      </tr>
      <tr>
        <td>EOL Do Not Attempt Cardio-pulmonary Resuscitation Docs Location</td>
        <td>DNACPR document in top desk drawer in the patient's living room</td>
      </tr>
      <tr>
        <td>Discussion about do not attempt cardiopulmonary resuscitation clinical decision</td>
        <td>Family member informed of cardiopulmonary resuscitation clinical decision</td>
      </tr>
    </tbody>
  </table>
  <br />
  <table width="100%" border="1" style="color:#000000; background-color:#dddddd">
    <tbody>
      <tr>
        <th style="font-size:20px" align="left" colspan="2">Anticipatory medicines/equipment</th>
      </tr>
      <tr>
        <td>EOL Anticipatory Medicine Box Location</td>
        <td>On shelf in front room</td>
      </tr>
    </tbody>
  </table>
  <br />
</div></text><entry><reference value="Observation/9322a1b5-5264-47ee-a0b6-e30fafa7f1ac" /><display value="COFE-CrisisCarePlan-Observation-1-Example-1" /></entry></section><section><title value="End of life care" /><code><coding><system value="http://snomed.info/sct" /><code value="935921000000102" /></coding></code><text><status value="generated" /><div xmlns="http://www.w3.org/1999/xhtml">
  <h2>End of life care</h2>
  <table width="100%" border="1" style="color:#000000; background-color:#dddddd">
    <tbody>
      <tr>
        <th style="font-size:20px" align="left" colspan="2">EOL Care Plan</th>
      </tr>
      <tr>
        <td>EOL Planned Review Date</td>
        <td>02-May-2016</td>
      </tr>
      <tr>
        <td>Plan Agreed with Patient Carer</td>
        <td>Full, active treatment plan, including in acute hospital setting</td>
      </tr>
    </tbody>
  </table>
  <br />
  <br />
</div></text></section></Composition></resource></entry><entry><resource><Patient><id value="31686b67-9f20-4644-9a54-193d2f91de57" /><meta><profile value="http://fhir.nhs.net/StructureDefinition/cofe-patient-1" /></meta><extension url="http://hl7.org/fhir/StructureDefinition/patient-birthTime"><valueDateTime value="1977-05-01T09:05:00+00:00" /></extension><identifier><extension url="http://fhir.nhs.net/StructureDefinition/extension-cofe-nhs-number-verification-status-1"><valueCodeableConcept><coding><system value="http://fhir.nhs.net/ValueSet/nhs-number-status-indicator-1" /><code value="01" /><display value="Number present and verified" /></coding></valueCodeableConcept></extension><system value="http://fhir.nhs.net/Id/nhs-number" /><value value="6305786860" /></identifier><name><use value="official" /><family value="Hembury" /><given value="Diane" /><prefix value="Mrs" /></name><name><use value="usual" /><given value="Di" /></name><telecom><value value="01256654321" /><use value="home" /></telecom><telecom><value value="07710447966" /><use value="mobile" /></telecom><gender value="female" /><birthDate value="1977-05-01" /><address><use value="home" /><line value="21, Grove Street" /><city value="Overtown" /><district value="Bath" /><postalCode value="BA21 1PF" /></address><address><use value="temp" /><line value="15 Lucius Street" /><city value="Foxtown" /><district value="Bath" /><postalCode value="BA31 1BT" /></address><address><use value="work" /><line value="Room 8" /><line value="2nd floor" /><line value="Flat 2" /><line value="1 Lansdown Place" /><city value="East Bath" /><postalCode value="BA1 5ET" /></address><communication><language><extension url="http://fhir.nhs.net/StructureDefinition/extension-cofe-language-ability-proficiency-1"><valueCodeableConcept><coding><system value=" http://fhir.nhs.net/ValueSet/language-ability-proficiency-1" /><code value="E" /><display value="Excellent" /></coding></valueCodeableConcept></extension><extension url="http://fhir.nhs.net/StructureDefinition/extension-cofe-language-ability-mode-1"><valueCodeableConcept><coding><system value="http://fhir.nhs.net/ValueSet/language-ability-mode-1" /><code value="ESP" /><display value="Expressed spoken" /></coding></valueCodeableConcept></extension><coding><code value="en" /></coding></language><preferred value="true" /></communication><communication><language><extension url="http://fhir.nhs.net/StructureDefinition/extension-cofe-language-ability-proficiency-1"><valueCodeableConcept><coding><system value=" http://fhir.nhs.net/ValueSet/language-ability-proficiency-1" /><code value="F" /><display value="Fair" /></coding></valueCodeableConcept></extension><extension url="http://fhir.nhs.net/StructureDefinition/extension-cofe-language-ability-mode-1"><valueCodeableConcept><coding><system value="http://fhir.nhs.net/ValueSet/language-ability-mode-1" /><code value="ESP" /><display value="Expressed spoken" /></coding></valueCodeableConcept></extension><coding><code value="fr" /></coding></language><preferred value="false" /></communication></Patient></resource></entry><entry><resource><Condition><id value="e3d96a2e-abbe-4e78-93dd-e5870fc4f796" /><meta><profile value="http://fhir.nhs.net/StructureDefinition/cofe-diagnosis-condition-1" /></meta><extension url="http://fhir.nhs.net/StructureDefinition/extension-cofe-diagnosisawareness-1"><valueCodeableConcept><coding><system value="http://snomed.info/sct" /><code value="473302008" /><display value="Aware of diagnosis" /></coding><coding><system value="http://snomed.info/sct" /><code value="473308007" /><display value="Caregiver aware of diagnosis" /></coding></valueCodeableConcept></extension><identifier><value value="16850e54-63f1-4983-a6ed-233f99c390f9" /></identifier><patient><reference value="Patient/31686b67-9f20-4644-9a54-193d2f91de57" /><display value="Diane Hembury" /></patient><asserter><reference value="Practitioner/f7737bf5-cfe7-491c-af3a-6f7177d5aee1" /><display value="Dr Tom Wood" /></asserter><code><coding><system value="http://snomed.info/sct" /><code value="405843009:106229004=8319008" /><display value="405843009 |Widespread metastatic malignant neoplastic disease|:106229004 |Qualifier for type of diagnosis| = 8319008 |Principal diagnosis|" /></coding></code><category><coding><system value="http://hl7.org/fhir/ValueSet/condition-category" /><code value="diagnosis" /><display value="Diagnosis" /></coding></category><verificationStatus value="confirmed" /><onsetPeriod><start value="2016-01-02T09:05:00+00:00" /></onsetPeriod><stage><summary><text value="Early onset" /></summary></stage></Condition></resource></entry><entry><resource><Condition><id value="98d29b5a-da2b-4f48-99b8-53924642c9fd" /><meta><profile value="http://fhir.nhs.net/StructureDefinition/cofe-diagnosis-condition-1" /></meta><extension url="http://fhir.nhs.net/StructureDefinition/extension-cofe-diagnosisawareness-1"><valueCodeableConcept><coding><system value="http://snomed.info/sct" /><code value="473302008" /><display value="Aware of diagnosis" /></coding></valueCodeableConcept></extension><identifier><value value="16850e54-63f1-4983-a6ed-233f99c390f9" /></identifier><patient><reference value="Patient/31686b67-9f20-4644-9a54-193d2f91de57" /><display value="Diane Hembury" /></patient><asserter><reference value="Practitioner/8ece9986-9af0-4882-b0cf-23a96ea7b509" /><display value="Dr Matt Smith" /></asserter><code><coding><system value="http://snomed.info/sct" /><code value="13645005 :106229004=85097005" /><display value="13645005 | Chronic obstructive lung disease | : 106229004 | Qualifier for type of diagnosis | = 85097005 | Secondary diagnosis |" /></coding></code><category><coding><system value="http://hl7.org/fhir/ValueSet/condition-category" /><code value="diagnosis" /><display value="Diagnosis" /></coding></category><verificationStatus value="confirmed" /><onsetPeriod><start value="2016-01-02T09:06:00+00:00" /></onsetPeriod><stage><summary><text value="Advanced - life threatening" /></summary></stage></Condition></resource></entry><entry><resource><Observation><id value="f7c59646-abf9-4e9b-bb56-48ce17b84534" /><meta><profile value="http://fhir.nhs.net/StructureDefinition/cofe-spmh-observation-1" /></meta><identifier><value value="f1129597-e9b4-404f-B410-de51abcbfb95" /></identifier><status value="final" /><code><coding><system value="http://fhir.nhs.net/ValueSet/cda-observation-type-1" /><code value="SPMH" /><display value="Significant Past Medical History" /></coding></code><subject><reference value="Patient/31686b67-9f20-4644-9a54-193d2f91de57" /><display value="Diane Hembury" /></subject><effectivePeriod><start value="2010-03-02" /></effectivePeriod><valueCodeableConcept><coding><system value="http://fhir.nhs.net/ValueSet/housing-snct-1" /><code value="161973001" /><display value="Anterior chest wall pain" /></coding><text value="Secondary malignant neoplasm of chest wall" /></valueCodeableConcept></Observation></resource></entry><entry><resource><MedicationStatement><id value="6cca2c2b-f0ae-4d4e-9400-d2400c3a860a" /><meta><profile value="http://fhir.nhs.net/StructureDefinition/cofe-medicationsadministered-medicationstatement-1" /></meta><extension url="http://fhir.nhs.net/StructureDefinition/extension-cofe-administration-unit-code-1"><valueCodeableConcept><coding><system value="http://snomed.info/sct" /><code value="385022006" /><display value="Oral liquid" /></coding></valueCodeableConcept></extension><identifier><value value="284b6683-26a7-4505-92aa-0c5246ec7137" /></identifier><patient><reference value="Patient/31686b67-9f20-4644-9a54-193d2f91de57" /><display value="Diane Hembury" /></patient><dateAsserted /><status value="completed" /><reasonForUseCodeableConcept><coding><system value="http://snomed.info/sct" /><code value="310496002" /><display value="moderate depression" /></coding></reasonForUseCodeableConcept><effectivePeriod><start value="2015-02-12" /><end value="2015-02-26" /></effectivePeriod><note value="Patient must be prescribed Brand1" /><medicationCodeableConcept><coding><system value="http://snomed.info/sct" /><code value="13004511000001109" /><display value="Paroxetine 10mg/5ml oral suspension" /></coding></medicationCodeableConcept><dosage><text value="10mg to be taken daily. Nasogastric route" /><route><coding><system value="http://snomed.info/sct" /><code value="127492001" /><display value="Nasogastric route" /></coding></route></dosage></MedicationStatement></resource></entry><entry><resource><MedicationStatement><id value="14764813-c1b0-43a8-aee8-4559ec4671ad" /><meta><profile value="http://fhir.nhs.net/StructureDefinition/cofe-medicationsadministered-medicationstatement-1" /></meta><extension url="http://fhir.nhs.net/StructureDefinition/extension-cofe-administration-unit-code-1"><valueCodeableConcept><coding><system value="http://snomed.info/sct" /><code value="420929008" /><display value="Rectal suppository" /></coding></valueCodeableConcept></extension><identifier><value value="d39f1675-7d85-482d-8ca1-1aef6ddcc48b" /></identifier><patient><reference value="Patient/31686b67-9f20-4644-9a54-193d2f91de57" /><display value="Diane Hembury" /></patient><dateAsserted /><status value="completed" /><reasonForUseCodeableConcept><coding><system value="http://snomed.info/sct" /><code value="14760008" /><display value="Constipation" /></coding></reasonForUseCodeableConcept><effectivePeriod><start value="2015-02-12" /><end value="2015-02-26" /></effectivePeriod><note value="Patient must be prescribed Brand2" /><medicationCodeableConcept><coding><system value="http://snomed.info/sct" /><code value="317607005" /><display value="Glycerol 2g suppositories" /></coding></medicationCodeableConcept><dosage><text value="2mg to be inserted every 4 hours" /><route><coding><system value="http://snomed.info/sct" /><code value="37161004" /><display value="Rectal route" /></coding></route></dosage></MedicationStatement></resource></entry><entry><resource><MedicationStatement><id value="ab7bb7d8-99ae-4cce-a6f8-195259b13aa1" /><meta><profile value="http://fhir.nhs.net/StructureDefinition/cofe-medicationsadministered-medicationstatement-1" /></meta><extension url="http://fhir.nhs.net/StructureDefinition/extension-cofe-administration-unit-code-1"><valueCodeableConcept><coding><system value="http://snomed.info/sct" /><code value="385220007" /><display value="Injection suspension" /></coding></valueCodeableConcept></extension><identifier><value value="150d2e1b-93ce-425b-b04b-381fb0c5c9f7" /></identifier><patient><reference value="Patient/31686b67-9f20-4644-9a54-193d2f91de57" /><display value="Diane Hembury" /></patient><dateAsserted /><status value="completed" /><reasonForUseCodeableConcept><coding><system value="http://snomed.info/sct" /><code value="300895004" /><display value="Anxiety attack" /></coding></reasonForUseCodeableConcept><effectivePeriod><start value="2015-02-12" /><end value="2015-02-03" /></effectivePeriod><note value="To be administered as a Just-in-case medication. Brand3" /><medicationCodeableConcept><coding><system value="http://snomed.info/sct" /><code value="22709211000001102" /><display value="Midazolam 10mg/10ml inj pre-filled syringes" /></coding></medicationCodeableConcept><dosage><text value="Midazolam 10mg intramuscular injection of Brand3, 3 times maximum" /><route><coding><system value="http://snomed.info/sct" /><code value="78421000" /><display value="Intramuscular route" /></coding></route></dosage></MedicationStatement></resource></entry><entry><resource><MedicationStatement><id value="6c85ed8c-6df0-44db-93df-197669636896" /><meta><profile value="http://fhir.nhs.net/StructureDefinition/cofe-medicationsadministered-medicationstatement-1" /></meta><extension url="http://fhir.nhs.net/StructureDefinition/extension-cofe-administration-unit-code-1"><valueCodeableConcept><coding><system value="http://snomed.info/sct" /><code value="385188006" /><display value="Rectal suspension" /></coding></valueCodeableConcept></extension><identifier><value value="6c79da98-c92e-4dea-9b26-349924a6bbcd" /></identifier><patient><reference value="Patient/31686b67-9f20-4644-9a54-193d2f91de57" /><display value="Diane Hembury" /></patient><dateAsserted /><status value="completed" /><reasonForUseCodeableConcept><coding><system value="http://snomed.info/sct" /><code value="91175000" /><display value="Seizure" /></coding></reasonForUseCodeableConcept><effectivePeriod><start value="2015-02-12" /><end value="2016-02-11" /></effectivePeriod><note value="To be administered as a Just-in-case medication. Brand4" /><medicationCodeableConcept><coding><system value="http://snomed.info/sct" /><code value="323073009" /><display value="Diazepam 5mg/2.5ml rectal solution tube" /></coding></medicationCodeableConcept><dosage><text value="Diazepam by rectal route maximum 20 times" /><route><coding><system value="http://snomed.info/sct" /><code value="37161004" /><display value="Rectal route" /></coding></route></dosage></MedicationStatement></resource></entry><entry><resource><AllergyIntolerance><id value="97f0402c-ecf2-4d41-aa56-e6028f097081" /><meta><profile value="http://fhir.nhs.net/StructureDefinition/cofe-allergicoradversereactions-allergyintolerence-1" /></meta><identifier><value value="c01c706a-ae0b-4910-b751-fc3f3ec5197c" /></identifier><patient><reference value="Patient/31686b67-9f20-4644-9a54-193d2f91de57" /><display value="Diane Hembury" /></patient><substance><text value="Sticking plaster" /></substance><status value="confirmed" /><reaction><manifestation><text value="Contact dermatitis caused by chemical" /></manifestation></reaction></AllergyIntolerance></resource></entry><entry><resource><AllergyIntolerance><id value="caccc801-17a9-4c65-948a-defa33f4ae90" /><meta><profile value="http://fhir.nhs.net/StructureDefinition/cofe-allergicoradversereactions-allergyintolerence-1" /></meta><identifier><value value="8086b754-3399-4e3e-ae83-8ceff4bbdc76" /></identifier><patient><reference value="Patient/31686b67-9f20-4644-9a54-193d2f91de57" /><display value="Diane Hembury" /></patient><substance><text value="Penicillin" /></substance><status value="confirmed" /><reaction><manifestation><text value="Penicillin adverse reaction" /></manifestation></reaction></AllergyIntolerance></resource></entry><entry><resource><AllergyIntolerance><id value="f81fe70b-53e4-45fc-ad0d-d428a77468be" /><meta><profile value="http://fhir.nhs.net/StructureDefinition/cofe-allergicoradversereactions-allergyintolerence-1" /></meta><extension url="http://fhir.nhs.net/StructureDefinition/extension-cofe-probability-of-recurrence-1"><valueString value="Almost certain probability of recurrence" /></extension><identifier><value value="bbccd8c6-6bca-47ca-b89f-c76650ca1420" /></identifier><onset value="2016-08-31" /><recordedDate value="2016-09-30" /><patient><reference value="Patient/31686b67-9f20-4644-9a54-193d2f91de57" /><display value="Diane Hembury" /></patient><substance><coding><system value="http://snomed.info/sct" /><code value="3563811000001107" /><display value="Lanolin oil" /></coding></substance><status value="confirmed" /><type value="allergy" /><note><text value="Proven by prick test" /></note><reaction><certainty value="likely" /><manifestation><coding><system value="http://snomed.info/sct" /><code value="277257008" /><display value="supraglottic swelling" /></coding></manifestation><severity value="moderate" /><note><text value="Patient inhaled lanolin oil from new jumper on first wear." /></note></reaction></AllergyIntolerance></resource></entry><entry><resource><AllergyIntolerance><id value="c33db1ed-17c1-493c-ab85-b641302b3f58" /><meta><profile value="http://fhir.nhs.net/StructureDefinition/cofe-allergicoradversereactions-allergyintolerence-1" /></meta><extension url="http://fhir.nhs.net/StructureDefinition/extension-cofe-probability-of-recurrence-1"><valueString value="Almost certain probability of recurrence" /></extension><identifier><value value="2c8c9c6e-9014-4a4e-8f00-e05569e9e7ea" /></identifier><recordedDate value="2016-09-26" /><patient><reference value="Patient/31686b67-9f20-4644-9a54-193d2f91de57" /><display value="Diane Hembury" /></patient><substance><text value="Cat dander" /></substance><status value="confirmed" /><type value="allergy" /><note><text value="Experienced since childhood, Confirmed by challenge test" /></note><reaction><certainty value="confirmed" /><manifestation><text value="Uncontrollable sneezing" /></manifestation><severity value="severe" /><note><text value="Patient has recently purchased a cat" /></note></reaction></AllergyIntolerance></resource></entry><entry><resource><AllergyIntolerance><id value="7f09f0c8-21aa-431f-a961-88c232b6cae3" /><meta><profile value="http://fhir.nhs.net/StructureDefinition/cofe-allergicoradversereactions-allergyintolerence-1" /></meta><identifier><value value="903aff03-ca7c-4b8d-ad5d-f40cd01e8c14" /></identifier><patient><reference value="Patient/31686b67-9f20-4644-9a54-193d2f91de57" /><display value="Diane Hembury" /></patient><substance><text value="Midazolam 10mg/5ml oral solution" /></substance><status value="confirmed" /><reaction><manifestation><text value="Mazindol adverse reaction" /></manifestation></reaction></AllergyIntolerance></resource></entry><entry><resource><AllergyIntolerance><id value="2d79d6c9-dbe2-4455-8baa-da3bba456616" /><meta><profile value="http://fhir.nhs.net/StructureDefinition/cofe-allergicoradversereactions-allergyintolerence-1" /></meta><identifier><value value="e5b750b4-a407-4871-9792-eb164cab2ddc" /></identifier><recordedDate value="2016-05-18" /><patient><reference value="Patient/31686b67-9f20-4644-9a54-193d2f91de57" /><display value="Diane Hembury" /></patient><substance><coding><system value="http://snomed.info/sct" /><code value="387458008" /><display value="Aspirin" /></coding></substance><status value="confirmed" /></AllergyIntolerance></resource></entry><entry><resource><Flag><id value="1df994ec-ce2b-462e-9488-c3c977fe76cd" /><meta><profile value="http://fhir.nhs.net/StructureDefinition/cofe-risk-flag-1" /></meta><identifier><value value="0965612e-110c-49ef-8ea9-b767efa54b82" /></identifier><category><coding><system value="http://fhir.nhs.net/ValueSet/flag-category-1)" /><code value="414382000" /><display value="Healthcare Professional at risk" /></coding></category><status value="active" /><period><start value="2016-03-02" /></period><subject><reference value="Patient/31686b67-9f20-4644-9a54-193d2f91de57" /><display value="Diane Hembury" /></subject><author><reference value="Practitioner/924ad2f1-63dc-40cf-9f54-8da0fa3ba096" /></author><code><coding><system value="http://snomed.info/sct" /><code value="924361000000108" /><display value="Registered with violent patient scheme" /></coding><text value="Patient has shown violent acts towards others" /></code></Flag></resource></entry><entry><resource><Flag><id value="b6e9e9ce-4e70-4388-8846-58ee39707f00" /><meta><profile value="http://fhir.nhs.net/StructureDefinition/cofe-risk-flag-1" /></meta><identifier><value value="0965612e-110c-49ef-8ea9-b767efa54b82" /></identifier><category><coding><system value="http://fhir.nhs.net/ValueSet/flag-category-1)" /><code value="222701000000104" /><display value="Risk to patient" /></coding></category><status value="active" /><period><start value="2016-03-02" /></period><subject><reference value="Patient/31686b67-9f20-4644-9a54-193d2f91de57" /><display value="Diane Hembury" /></subject><author><reference value="Practitioner/924ad2f1-63dc-40cf-9f54-8da0fa3ba096" /></author><code><coding><system value="http://snomed.info/sct" /><code value="755921000000105" /><display value="Risk to health associated with overweight and obesity, at high risk" /></coding><text value="Patient has low self-esteem." /></code></Flag></resource></entry><entry><resource><Observation><id value="ccfd85b9-5b5e-44f7-a8d4-500b7b0864bd" /><meta><profile value="http://fhir.nhs.net/StructureDefinition/cofe-adtrt-observation-1" /></meta><identifier><value value="320d13d6-db91-4d51-a3a4-5185b1c9c807" /></identifier><status value="final" /><code><coding><system value="http://fhir.nhs.net/ValueSet/eol-cda-observation-type-1" /><code value="EOLADP" /><display value="EOL Patient Advance Decision to Refuse Treatment" /></coding></code><subject><reference value="Patient/31686b67-9f20-4644-9a54-193d2f91de57" /><display value="Diane Hembury" /></subject><effectiveDateTime value="2016-01-02T08:39:16+00:00" /><performer><reference value="Practitioner/78d7ac3f-17a4-419a-964f-84148c9eef94" /><display value="Dr. Mandy Shaw" /></performer><valueCodeableConcept><coding><system value="http://fhir.nhs.net/ValueSet/ADTRT-snct-1" /><code value="816301000000100" /><display value="Has advance decision to refuse treatment (Mental Capacity Act 2005)" /></coding></valueCodeableConcept><component><code><coding><system value="http://fhir.nhs.net/ValueSet/eol-cda-observation-type-1" /><code value="EOLADL" /><display value="EOL Patient Advance Decision to Refuse Treatment Docs Location" /></coding></code><valueString value="EOL ADRT document in top desk drawer in the patient's living room" /></component><component><code><coding><system value="http://fhir.nhs.net/ValueSet/eol-cda-observation-type-1" /><code value="EOLADS" /><display value="EOL Patient Advance Decision to Refuse Treatment Discussed" /></coding></code><valueCodeableConcept><coding><system value="http://snomed.info/sct" /><code value="820621000000107" /><display value="Has involved healthcare professional in discussion about advance decision to refuse treatment (Mental Capacity Act 2005)" /></coding></valueCodeableConcept></component></Observation></resource></entry><entry><resource><Observation><id value="bc14a26f-beab-4fb7-b34b-9b5f1b634b3c" /><meta><profile value="http://fhir.nhs.net/StructureDefinition/cofe-adtrt-observation-1" /></meta><identifier><value value="320d13d6-db91-4d51-a3a4-5185b1c9c807" /></identifier><status value="final" /><code><coding><system value="http://fhir.nhs.net/ValueSet/cda-observation-type-1" /><code value="SGO" /><display value="Safeguarding Observation" /></coding></code><subject><reference value="Patient/31686b67-9f20-4644-9a54-193d2f91de57" /><display value="Diane Hembury" /></subject><effectivePeriod><start value="2016-01-02T08:39:16+00:00" /></effectivePeriod><performer><reference value="Practitioner/78d7ac3f-17a4-419a-964f-84148c9eef94" /><display value="Dr. Mandy Shaw" /></performer><valueCodeableConcept><coding><system value="http://snomed.info/sct" /><code value="1053881000000102" /><display value="Safeguarding intervention" /></coding><text value="Safeguarding adults protection plan agreed." /></valueCodeableConcept></Observation></resource></entry><entry><resource><Observation><id value="ff15fe40-2251-4f79-a5aa-93239712df86" /><meta><profile value="http://fhir.nhs.net/StructureDefinition/cofe-lastingpowerofattorney-observation-1" /></meta><identifier><value value="4d70d576-05d4-4beb-b691-f25cfbce1f15" /></identifier><status value="final" /><code><coding><system value="http://fhir.nhs.net/ValueSet/eol-cda-observation-type-1" /><code value="EOLLPA" /><display value="EOL Authority to Lasting Power of Attorney" /></coding></code><subject><reference value="Patient/31686b67-9f20-4644-9a54-193d2f91de57" /><display value="Diane Hembury" /></subject><effectivePeriod><start value="2016-01-02" /></effectivePeriod><performer><reference value="RelatedPerson/1ed3fa7b-0f20-4ffd-8d55-8eb4994a716a" /></performer><valueCodeableConcept><coding><system value="http://fhir.nhs.net/ValueSet/LPOA-snct-1" /><code value="816381000000105" /><display value="Has appointed person with personal welfare lasting power of attorney with authority for life sustaining decisions (Mental Capacity Act 2005)" /></coding></valueCodeableConcept></Observation></resource></entry><entry><resource><Observation><id value="f6231c77-fc41-4e2a-bf18-08e22b450a22" /><meta><profile value="http://fhir.nhs.net/StructureDefinition/cofe-housing-observation-1" /></meta><identifier><value value="b663ac06-3965-4893-98a3-7325b8146c34" /></identifier><status value="final" /><code><coding><system value="http://fhir.nhs.net/ValueSet/cda-observation-type-1" /><code value="HRF" /><display value="Housing Related Finding" /></coding></code><subject><reference value="Patient/31686b67-9f20-4644-9a54-193d2f91de57" /><display value="Diane Hembury" /></subject><effectivePeriod><start value="2016-03-02" /></effectivePeriod><valueCodeableConcept><coding><system value="http://fhir.nhs.net/ValueSet/housing-snct-1" /><code value="408821002" /><display value="Lives with partner" /></coding></valueCodeableConcept></Observation></resource></entry><entry><resource><Observation><id value="33dfe095-3ba3-4a45-92a7-cf2c135773a3" /><meta><profile value="http://fhir.nhs.net/StructureDefinition/cofe-mobility-observation-1" /></meta><identifier><value value="fec3792b-6175-4d17-897f-c7fd35929eb1" /></identifier><status value="final" /><code><coding><system value="http://fhir.nhs.net/ValueSet/cda-observation-type-1" /><code value="MOD" /><display value="Mobility or Disability Observations" /></coding></code><subject><reference value="Patient/31686b67-9f20-4644-9a54-193d2f91de57" /><display value="Diane Hembury" /></subject><effectivePeriod><start value="2016-01-02T08:39:16+00:00" /></effectivePeriod><performer><reference value="Practitioner/78d7ac3f-17a4-419a-964f-84148c9eef94" /><display value="Dr. Mandy Shaw" /></performer><valueCodeableConcept><coding><system value="http://snomed.info/sct" /><code value="784661000000101" /><display value="Does not drive a vehicle" /></coding><text value="Disqualified from driving due to excess alcohol" /></valueCodeableConcept></Observation></resource></entry><entry><resource><Observation><id value="9322a1b5-5264-47ee-a0b6-e30fafa7f1ac" /><meta><profile value="http://fhir.nhs.net/StructureDefinition/cofe-crisiscareplan-observation-1" /></meta><identifier><value value="e89dfe60-7d8f-4383-869b-f6b31bd71efe" /></identifier><status value="final" /><category><coding><system value="http://fhir.nhs.net/ValueSet/crisiscareplan-observation-1" /><code value="CCO" /><display value="Crisis Care Observation" /></coding></category><code><coding><system value="http://fhir.nhs.net/ValueSet/crisiscareplan-observation-1" /><code value="ICOPC" /><display value="In Case of Pain Crises" /></coding></code><subject><reference value="Patient/31686b67-9f20-4644-9a54-193d2f91de57" /><display value="Diane Hembury" /></subject><effectivePeriod><start value="2016-01-02" /></effectivePeriod><performer><reference value="Practitioner/78d7ac3f-17a4-419a-964f-84148c9eef94" /><display value="Dr. Mandy Shaw" /></performer><valueCodeableConcept><text value="Administer Ibuprofen, two 200mg tablets every four to six hours" /></valueCodeableConcept></Observation></resource></entry><entry><resource><CarePlan><id value="fea7bf33-3bc1-4eb7-856c-badb3a92135a" /><meta><profile value="http://fhir.nhs.net/StructureDefinition/cofe-endoflifecareplan-careplan-1" /></meta><extension url="http://fhir.nhs.net/StructureDefinition/extension-cofe-planned-review-date-1"><valueDate value="2016-05-02" /></extension><identifier><value value="11a98de8-4c44-424c-bb6d-0049c4d2b777" /></identifier><subject><reference value="Patient/31686b67-9f20-4644-9a54-193d2f91de57" /><display value="Diane Hembury" /></subject><status value="active" /><period><start value="2016-03-02" /></period><category><coding><system value="http://fhir.nhs.net/ValueSet/eol-cda-observation-type-1" /><code value="EOLCP" /><display value="EOL Care Plan" /></coding></category><note><text value="Full, active treatment plan, including in acute hospital setting" /></note></CarePlan></resource></entry><entry><resource><QuestionnaireResponse><id value="9c7eb664-d257-4250-aee2-20ad202919e8" /><meta><profile value="http://fhir.nhs.net/StructureDefinition/cofe-dnacprdecision-questionnaireresponse-1" /></meta><identifier><value value="fd60ffd5-3e41-4b68-aa62-37f5407d8c04" /></identifier><status value="completed" /><subject><reference value="Patient/31686b67-9f20-4644-9a54-193d2f91de57" /><display value="Diane Hembury" /></subject><author><reference value="Practitioner/78d7ac3f-17a4-419a-964f-84148c9eef94" /><display value="Dr. Mandy Shaw" /></author><authored value="2016-03-02" /><group><question><linkId value="EOLDCR" /><text value="Should cardio-pulmonary resuscitation commence?" /><answer><valueCoding><system value="http://fhir.nhs.net/ValueSet/cpr-decision-response-1" /><code value="450476008" /><display value="Not for cardiopulmonary resuscitation" /></valueCoding></answer></question><question><linkId value="EOLDCR" /><text value="What date was the DNA CPR decision made?" /><answer><valueDate value="2016-03-02" /></answer></question><question><linkId value="EOLDDL" /><text value="Where is the DNACPR documentation located?" /><answer><valueString value="DNACPR document in top desk drawer in the patient's living room" /></answer></question><question><linkId value="EOLDRD" /><text value="What date should the DNA CPR decision be reviewed?" /><answer><valueDate value="2016-06-02" /></answer></question><question><linkId value="921551000000101" /><text value="Has the DNA CPR decision been discussed with the patient's family/carer?" /><answer><valueCoding><system value="http://fhir.nhs.net/ValueSet/cpr-decision-discussion-family-carer-response-1" /><code value="975291000000108" /><display value="Family member informed of cardiopulmonary resuscitation clinical decision" /></valueCoding></answer></question></group></QuestionnaireResponse></resource></entry><entry><resource><Procedure><id value="046fcf2d-80b0-4912-a50c-dd1293dbbed8" /><meta><profile value="http://fhir.nhs.net/StructureDefinition/cofe-issueofanticipatorymeds-procedure-1" /></meta><extension url="http://fhir.nhs.net/StructureDefinition/extension-cofe-anticipatorymedslocation-1"><valueString value="On shelf in front room" /></extension><subject><reference value="Patient/31686b67-9f20-4644-9a54-193d2f91de57" /><display value="Diane Hembury" /></subject><status value="completed" /><code><coding><system value="http://fhir.nhs.net/ValueSet/issue-of-anticipatory-meds-1" /><code value="76201000000102" /><display value="Issue of palliative care anticipatory medication box" /></coding></code><performedDateTime value="2016-01-02" /></Procedure></resource></entry><entry><resource><Procedure><id value="046fcf2d-80b0-4912-a50c-dd1293dbbed8" /><meta><profile value="http://fhir.nhs.net/StructureDefinition/cofe-issueofanticipatorymeds-procedure-1" /></meta><extension url="http://fhir.nhs.net/StructureDefinition/extension-cofe-anticipatorymedslocation-1"><valueString value="On shelf in front room" /></extension><subject><reference value="Patient/31686b67-9f20-4644-9a54-193d2f91de57" /><display value="Diane Hembury" /></subject><status value="completed" /><code><coding><system value="http://fhir.nhs.net/ValueSet/issue-of-anticipatory-meds-1" /><code value="76201000000102" /><display value="Issue of palliative care anticipatory medication box" /></coding></code><performedDateTime value="2016-01-02" /></Procedure></resource></entry><entry><resource><Practitioner><id value="924ad2f1-63dc-40cf-9f54-8da0fa3ba096" /><meta><profile value="http://fhir.nhs.net/StructureDefinition/cofe-practitioner-1" /></meta><identifier><system value="http://fhir.nhs.net/Id/sds-user-id" /><value value="G13579135" /></identifier><identifier><system value="http://fhir.nhs.net/Id/sds-role-profile-id" /><value value="NR2040" /></identifier><name><family value="Shaw" /><given value="Mandy" /></name><practitionerRole><managingOrganization><reference value="Organization/1474506e-609d-412e-952b-4bc74d769038" /><display value="The Royal Marsden Hospital (London)" /></managingOrganization><role><coding><system value="http://fhir.nhs.net/ValueSet/sds-job-role-name-1" /><code value="NR2040" /><display value="Palliative Care Physician" /></coding></role></practitionerRole></Practitioner></resource></entry><entry><resource><Organization><id value="1474506e-609d-412e-952b-4bc74d769038" /><meta><profile value="http://fhir.nhs.net/StructureDefinition/cofe-organization-ods-1" /></meta><identifier><system value="http://fhir.nhs.net/Id/ods-organization-code" /><value value="RPY01" /></identifier><name value="The Royal Marsden Hospital (London)" /></Organization></resource></entry><entry><resource><Organization><id value="575399c4-b48a-4faf-83b5-fa8a6474a7c6" /><meta><profile value="http://fhir.nhs.net/StructureDefinition/cofe-organization-ods-1" /></meta><identifier><system value="http://fhir.nhs.net/Id/ods-organization-code" /><value value="RYCF2" /></identifier><name value="NHS 111 Service" /></Organization></resource></entry><entry><resource><Practitioner><id value="e16e1d5a-17a9-40f4-a5b8-3d376a99fd38" /><meta><profile value="http://fhir.nhs.net/StructureDefinition/cofe-practitioner-1" /></meta><extension url="http://fhir.nhs.net/StructureDefinition/extension-cofe-participant-function-code-1"><valueCodeableConcept><coding><system value="http://snomed.info/sct" /><code value="24841000000106" /><display value="Usual general practitioner" /></coding></valueCodeableConcept></extension><extension url="http://fhir.nhs.net/StructureDefinition/extension-cofe-participant-type-1"><valueCodeableConcept><coding><system value="http://fhir.nhs.net/ValueSet/participant-type-1" /><code value="NOT" /><display value="Ugent notification contact" /></coding></valueCodeableConcept></extension><identifier><system value="http://fhir.nhs.net/Id/sds-user-id" /><value value="G13579135" /></identifier><name><use value="official" /><family value="SINGARAVELOU" /><given value="B" /><prefix value="Dr" /></name><telecom><system value="phone" /><value value="01234567890" /></telecom><telecom><system value="phone" /><value value="02468024680" /></telecom><address><line value="36 DEWEY ROAD" /><postalCode value="RM10 8AR" /></address><practitionerRole><managingOrganization><reference value="Organization/7b551079-9a05-4796-bf57-dc66b5c80585" /><display value="Berwick Surgery" /></managingOrganization><role><coding><system value="http://snomed.info/sct" /><code value="62247001" /><display value="General Practitioner" /></coding></role></practitionerRole></Practitioner></resource></entry><entry><resource><Practitioner><id value="4c096051-7f73-449f-b552-3b4de5825c77" /><meta><profile value="http://fhir.nhs.net/StructureDefinition/cofe-practitioner-1" /></meta><extension url="http://fhir.nhs.net/StructureDefinition/extension-cofe-participant-type-1"><valueCodeableConcept><coding><system value="http://fhir.nhs.net/ValueSet/participant-type-1" /><code value="NOT" /><display value="Ugent notification contact" /></coding></valueCodeableConcept></extension><name><use value="official" /><family value="Nurse" /><given value="E" /><prefix value="Ms" /></name><telecom><system value="phone" /><value value="13579123456" /><use value="work" /></telecom><telecom><system value="phone" /><value value="07891124567" /><use value="mobile" /></telecom><practitionerRole><managingOrganization><reference value="Organization/6549ec2d-6c5e-4806-ad96-c3c80d4f12d6" /></managingOrganization><role><coding><system value="http://snomed.info/sct" /><code value="158997000" /><display value="District nurse" /></coding></role></practitionerRole></Practitioner></resource></entry><entry><resource><Practitioner><id value="d47e67c6-5698-4638-9c5b-a29d13738249" /><meta><profile value="http://fhir.nhs.net/StructureDefinition/cofe-practitioner-1" /></meta><name><use value="official" /><family value="Community" /><given value="B" /><prefix value="Dr" /></name><telecom><system value="phone" /><value value="01814567654" /><use value="work" /></telecom><telecom><system value="phone" /><value value="09876543210" /><use value="mobile" /></telecom><practitionerRole><managingOrganization><reference value="Organization/c94bdec6-14d7-4e88-961a-2f1ba45f6aff" /><display value="Brent Community Health" /></managingOrganization></practitionerRole></Practitioner></resource></entry><entry><resource><Practitioner><id value="2ceb2362-1891-42fc-aacf-a4edd554468a" /><meta><profile value="http://fhir.nhs.net/StructureDefinition/cofe-practitioner-1" /></meta><name><use value="official" /><family value="Palliative" /><given value="G" /><prefix value="Mrs" /></name><telecom><system value="phone" /><value value="01213456789" /><use value="work" /></telecom><telecom><system value="phone" /><value value="07890123456" /><use value="mobile" /></telecom><practitionerRole><managingOrganization><reference value="Organization/c94bdec6-14d7-4e88-961a-2f1ba45f6aff" /><display value="Ealing Community Team" /></managingOrganization></practitionerRole></Practitioner></resource></entry><entry><resource><Practitioner><id value="a69a7afe-fee3-411f-bd1a-14bc71174c31" /><meta><profile value="http://fhir.nhs.net/StructureDefinition/cofe-practitioner-1" /></meta><name><use value="official" /><family value="Hospice" /><given value="A" /><prefix value="Dr" /></name><telecom><system value="phone" /><value value="01213456789" /><use value="work" /></telecom><telecom><system value="phone" /><value value="07890123456" /><use value="mobile" /></telecom><practitionerRole><managingOrganization><reference value="Organization/51e111cc-dc41-40ba-8056-dde95a906a9a" /><display value="Acute care hospice service" /></managingOrganization></practitionerRole></Practitioner></resource></entry><entry><resource><Practitioner><id value="eaad094c-58e9-448e-bf23-618912054849" /><meta><profile value="http://fhir.nhs.net/StructureDefinition/cofe-practitioner-1" /></meta><name><use value="official" /><family value="Hospice" /><given value="A" /><prefix value="Dr" /></name><telecom><system value="phone" /><value value="01213456789" /><use value="work" /></telecom><telecom><system value="phone" /><value value="09876543210" /><use value="mobile" /></telecom><practitionerRole><managingOrganization><reference value="Organization/feaf1e71-e422-4102-83bb-d00e9a6d44f0" /><display value="St Luke's Hospice" /></managingOrganization></practitionerRole></Practitioner></resource></entry><entry><resource><Practitioner><id value="7291998c-9c2f-48ae-a9b7-58a0772bedf4" /><meta><profile value="http://fhir.nhs.net/StructureDefinition/cofe-practitioner-1" /></meta><name><use value="official" /><family value="Consultant" /><given value="F" /><prefix value="Dr" /></name><telecom><system value="phone" /><value value="01234543210" /><use value="work" /></telecom><telecom><system value="phone" /><value value="01234543212" /><use value="mobile" /></telecom><practitionerRole><managingOrganization><reference value="Organization/1f0f5554-c375-4d6a-9941-ba42caeccb0a" /><display value="Barnet and Chase Farm" /></managingOrganization></practitionerRole></Practitioner></resource></entry><entry><resource><Practitioner><id value="f1b6593e-25f4-4b2f-b750-009037c4d731" /><meta><profile value="http://fhir.nhs.net/StructureDefinition/cofe-practitioner-1" /></meta><name><use value="official" /><family value="Riley" /><given value="G" /><prefix value="Dr" /></name><telecom><system value="phone" /><value value="02081234567" /><use value="work" /></telecom><telecom><system value="phone" /><value value="02071235789" /><use value="work" /></telecom><practitionerRole><managingOrganization><reference value="Organization/1474506e-609d-412e-952b-4bc74d769038" /><display value="Royal Marsden" /></managingOrganization><role><coding><system value="http://snomed.info/sct" /><code value="309390008" /><display value="Hospital consultant" /></coding></role></practitionerRole></Practitioner></resource></entry><entry><resource><Practitioner><id value="d17dc85d-87bc-43a2-9fc3-12ff89870bd6" /><meta><profile value="http://fhir.nhs.net/StructureDefinition/cofe-practitioner-1" /></meta><name><use value="official" /><family value="Other" /><given value="H" /><prefix value="Other" /></name><telecom><system value="phone" /><value value="02034567531" /><use value="work" /></telecom><telecom><system value="phone" /><value value="07891124352" /><use value="mobile" /></telecom><practitionerRole><managingOrganization><reference value="Organization/525842de-2714-4136-b44d-ba027d4a21f0" /><display value="Care Team" /></managingOrganization></practitionerRole></Practitioner></resource></entry><entry><resource><Practitioner><id value="19a32386-dea7-4d78-9286-9bd8479a9640" /><meta><profile value="http://fhir.nhs.net/StructureDefinition/cofe-practitioner-1" /></meta><name><use value="official" /></name><telecom><system value="phone" /><value value="01234567890" /><use value="work" /></telecom><telecom><system value="phone" /><value value="07890123456" /><use value="mobile" /></telecom><practitionerRole><managingOrganization><reference value="Organization/7b551079-9a05-4796-bf57-dc66b5c80585" /><display value="Berwick Surgery" /></managingOrganization></practitionerRole></Practitioner></resource></entry><entry><resource><Practitioner><id value="bacfadf4-d333-4199-9005-c1646dd5286f" /><meta><profile value="http://fhir.nhs.net/StructureDefinition/cofe-practitioner-1" /></meta><name><use value="official" /></name><telecom><system value="phone" /><value value="02468024680" /><use value="work" /></telecom><telecom><system value="phone" /><value value="07654432109" /><use value="mobile" /></telecom><practitionerRole><managingOrganization><reference value="Organization/7b551079-9a05-4796-bf57-dc66b5c80585" /><display value="Berwick Surgery" /></managingOrganization></practitionerRole></Practitioner></resource></entry><entry><resource><Practitioner><id value="bacfadf4-d333-4199-9005-c1646dd5286f" /><meta><profile value="http://fhir.nhs.net/StructureDefinition/cofe-practitioner-1" /></meta><telecom><system value="phone" /><value value="01234567890" /><use value="work" /></telecom><telecom><system value="phone" /><value value="01357135790" /><use value="mobile" /></telecom><practitionerRole><managingOrganization><reference value="Organization/7b652127-0840-47c0-801e-cf29ef4ef190" /><display value="London Borough of Bromley" /></managingOrganization></practitionerRole></Practitioner></resource></entry><entry><resource><Practitioner><id value="80a64935-6782-47bd-8cc0-05d2bf0222f8" /><meta><profile value="http://fhir.nhs.net/StructureDefinition/cofe-practitioner-1" /></meta><name><use value="official" /><family value="Care-Contact" /><given value="A" /><prefix value="Ms" /></name><telecom><system value="phone" /><value value="12345789001" /><use value="work" /></telecom><telecom><system value="phone" /><value value="09876654321" /><use value="mobile" /></telecom><practitionerRole><managingOrganization><reference value="Organization/5584b63c-9a7d-4fce-854f-a10ed87218fe" /><display value="Care Contact" /></managingOrganization><role><coding><system value="http://snomed.info/sct" /><code value="184152007" /><display value="Care Assistant" /></coding></role></practitionerRole></Practitioner></resource></entry><entry><resource><RelatedPerson><id value="1ae5a092-880b-4fe8-af9a-145124a1357d" /><meta><profile value="http://fhir.nhs.net/StructureDefinition/cofe-relatedperson-1" /></meta><extension url="http://fhir.nhs.net/StructureDefinition/extension-cofe-participant-function-code-1"><valueCodeableConcept><coding><system value="http://snomed.info/sct" /><code value="184142008" /><display value="Patient's next of kin" /></coding></valueCodeableConcept></extension><extension url="http://fhir.nhs.net/StructureDefinition/extension-cofe-participant-type-1"><valueCodeableConcept><coding><system value="http://fhir.nhs.net/ValueSet/participant-type-1" /><code value="NOT" /><display value="Ugent notification contact" /></coding></valueCodeableConcept></extension><identifier><system value="2.16.840.1.113883.2.1.3.2.4.15" /><value value="184142008" /></identifier><patient><reference value="Patient/31686b67-9f20-4644-9a54-193d2f91de57" /></patient><relationship><coding><system value="http://fhir.nhs.net/ValueSet/cda-person-relationship-type-1" /><code value="98" /><display value="Not Known" /></coding></relationship><name><use value="official" /><family value="Sudden" /><given value="Sam" /><prefix value="Mr" /></name><telecom><value value="01234567890" /><use value="home" /></telecom><address><use value="home" /><line value="1 James Street" /><city value="Govford" /></address></RelatedPerson></resource></entry><entry><resource><RelatedPerson><id value="5ea1331b-c578-48cd-a596-13a6d4ebd06a" /><meta><profile value="http://fhir.nhs.net/StructureDefinition/cofe-relatedperson-1" /></meta><extension url="http://fhir.nhs.net/StructureDefinition/extension-cofe-participant-function-code-1"><valueCodeableConcept><coding><system value="http://snomed.info/sct" /><code value="184142008" /><display value="Patient's next of kin" /></coding></valueCodeableConcept></extension><extension url="http://fhir.nhs.net/StructureDefinition/extension-cofe-participant-type-1"><valueCodeableConcept><coding><system value="http://fhir.nhs.net/ValueSet/participant-type-1" /><code value="NOT" /><display value="Ugent notification contact" /></coding></valueCodeableConcept></extension><identifier><system value="2.16.840.1.113883.2.1.3.2.4.15" /><value value="184142008" /></identifier><patient><reference value="Patient/31686b67-9f20-4644-9a54-193d2f91de57" /></patient><relationship><coding><system value="http://snomed.info/sct" /><code value="184142008" /><display value="patient's next of kin" /></coding></relationship><name><use value="official" /><family value="Sudden" /><given value="Samanatha" /><prefix value="Mrs" /></name><telecom><value value="02468023456" /><use value="home" /></telecom><address><use value="home" /><line value="2 John Street" /><city value="Govford" /><postalCode value="GV12 5RE" /></address></RelatedPerson></resource></entry><entry><resource><RelatedPerson><id value="f41c7c4c-1153-4626-bfa6-0c6a81aaac43" /><meta><profile value="http://fhir.nhs.net/StructureDefinition/cofe-relatedperson-1" /></meta><extension url="http://fhir.nhs.net/StructureDefinition/extension-cofe-participant-function-code-1"><valueCodeableConcept><coding><system value="http://snomed.info/sct" /><code value="133932002" /><display value="Caregiver" /></coding></valueCodeableConcept></extension><extension url="http://fhir.nhs.net/StructureDefinition/extension-cofe-participant-type-1"><valueCodeableConcept><coding><system value="http://fhir.nhs.net/ValueSet/participant-type-1" /><code value="NOT" /><display value="Ugent notification contact" /></coding></valueCodeableConcept></extension><identifier><system value="2.16.840.1.113883.2.1.3.2.4.15" /><value value="184142008" /></identifier><patient><reference value="Patient/31686b67-9f20-4644-9a54-193d2f91de57" /></patient><relationship><coding><system value="http://fhir.nhs.net/ValueSet/cda-person-relationship-type-1" /><code value="22" /><display value="Wife" /></coding></relationship><name><use value="official" /><family value="Bloggs" /><given value="Sarah" /><prefix value="Mrs" /></name><telecom><value value="01235680246" /><use value="home" /></telecom><address><use value="home" /><line value="321 Brighton Rock" /><city value="Gumford" /><district value="East Sussex" /></address></RelatedPerson></resource></entry><entry><resource><RelatedPerson><id value="1f0d8c47-0712-4d1c-863a-b80f00ddb4ca" /><meta><profile value="http://fhir.nhs.net/StructureDefinition/cofe-relatedperson-1" /></meta><extension url="http://fhir.nhs.net/StructureDefinition/extension-cofe-participant-function-code-1"><valueCodeableConcept><coding><system value="http://snomed.info/sct" /><code value="133932002" /><display value="Caregiver" /></coding></valueCodeableConcept></extension><extension url="http://fhir.nhs.net/StructureDefinition/extension-cofe-participant-type-1"><valueCodeableConcept><coding><system value="http://fhir.nhs.net/ValueSet/participant-type-1" /><code value="NOT" /><display value="Ugent notification contact" /></coding></valueCodeableConcept></extension><identifier><system value="2.16.840.1.113883.2.1.3.2.4.15" /><value value="184142008" /></identifier><patient><reference value="Patient/31686b67-9f20-4644-9a54-193d2f91de57" /></patient><relationship><coding><system value="http://fhir.nhs.net/ValueSet/cda-person-relationship-type-1" /><code value="42" /><display value="Son" /></coding></relationship><name><use value="official" /><family value="Bloggs" /><given value="John" /><prefix value="Mr" /></name><telecom><value value="09876543211" /><use value="mobile" /></telecom><address><use value="home" /><line value="123 Brighton Pier" /><city value="Gumford" /><district value="East Sussex" /></address></RelatedPerson></resource></entry><entry><resource><RelatedPerson><id value="b871ba7b-d6bb-46bf-8f5b-12994f51fd65" /><meta><profile value="http://fhir.nhs.net/StructureDefinition/cofe-relatedperson-1" /></meta><extension url="http://fhir.nhs.net/StructureDefinition/extension-cofe-participant-function-code-1"><valueCodeableConcept><coding><system value="2.16.840.1.113883.2.1.3.2.4.17.300" /><code value="03" /><display value="Health and Welfare Lasting Power of Attorney - with authority for life sustaining decisions" /></coding></valueCodeableConcept></extension><extension url="http://fhir.nhs.net/StructureDefinition/extension-cofe-participant-type-1"><valueCodeableConcept><coding><system value="http://fhir.nhs.net/ValueSet/participant-type-1" /><code value="NOT" /><display value="Ugent notification contact" /></coding></valueCodeableConcept></extension><identifier><system value="2.16.840.1.113883.2.1.3.2.4.15" /><value value="184142008" /></identifier><patient><reference value="Patient/31686b67-9f20-4644-9a54-193d2f91de57" /></patient><relationship><coding><system value="http://fhir.nhs.net/ValueSet/cda-person-relationship-type-1" /><code value="99" /><display value="Not Known" /></coding></relationship><name><use value="official" /><family value="Balidon" /><given value="Joseph" /><prefix value="Mr" /></name><telecom><value value="07891124321" /><use value="mobile" /></telecom></RelatedPerson></resource></entry><entry><resource><RelatedPerson><id value="0d4ddfba-b36a-4435-8310-600be295cab9" /><meta><profile value="http://fhir.nhs.net/StructureDefinition/cofe-relatedperson-1" /></meta><extension url="http://fhir.nhs.net/StructureDefinition/extension-cofe-participant-function-code-1"><valueCodeableConcept><coding><system value="2.16.840.1.113883.2.1.3.2.4.17.300" /><code value="02" /><display value="Health and Welfare Lasting Power of Attorney - without authority for life sustaining decisions" /></coding></valueCodeableConcept></extension><extension url="http://fhir.nhs.net/StructureDefinition/extension-cofe-participant-type-1"><valueCodeableConcept><coding><system value="http://fhir.nhs.net/ValueSet/participant-type-1" /><code value="NOT" /><display value="Ugent notification contact" /></coding></valueCodeableConcept></extension><identifier><system value="2.16.840.1.113883.2.1.3.2.4.15" /><value value="184142008" /></identifier><patient><reference value="Patient/31686b67-9f20-4644-9a54-193d2f91de57" /></patient><relationship><coding><system value="http://fhir.nhs.net/ValueSet/cda-person-relationship-type-1" /><code value="98" /><display value="Not Known" /></coding></relationship><name><use value="official" /><family value="Bloggs" /><given value="Peter" /><prefix value="Mr" /></name><telecom><value value="01225316145" /><use value="home" /></telecom></RelatedPerson></resource></entry><entry><resource><RelatedPerson><id value="892fa432-9a51-4736-9dcd-02ec3107f872" /><meta><profile value="http://fhir.nhs.net/StructureDefinition/cofe-relatedperson-1" /></meta><extension url="http://fhir.nhs.net/StructureDefinition/extension-cofe-participant-function-code-1"><valueCodeableConcept><coding><system value="2.16.840.1.113883.2.1.3.2.4.17.300" /><code value="01" /><display value="Lasting Power of Attorney - property and financial only" /></coding></valueCodeableConcept></extension><extension url="http://fhir.nhs.net/StructureDefinition/extension-cofe-participant-type-1"><valueCodeableConcept><coding><system value="http://fhir.nhs.net/ValueSet/participant-type-1" /><code value="NOT" /><display value="Ugent notification contact" /></coding></valueCodeableConcept></extension><identifier><system value="2.16.840.1.113883.2.1.3.2.4.15" /><value value="184142008" /></identifier><patient><reference value="Patient/31686b67-9f20-4644-9a54-193d2f91de57" /></patient><relationship><coding><system value="http://fhir.nhs.net/ValueSet/cda-person-relationship-type-1" /><code value="22" /><display value="Wife" /></coding></relationship><name><use value="official" /><family value="Bloggs" /><given value="Sarah" /><prefix value="Mrs" /></name><telecom><value value="01235680246" /><use value="home" /></telecom><address><use value="home" /><line value="321 Brighton Rock" /><city value="Gumford" /><district value="East Sussex" /></address></RelatedPerson></resource></entry><entry><resource><Organization><id value="79600119-ebaf-4362-bb89-d473a33b1675" /><meta><profile value="http://fhir.nhs.net/StructureDefinition/cofe-provider-organization-1" /></meta><identifier><system value="http://fhir.nhs.net/Id/ods-organization-code" /><value value="F84641" /></identifier><type><coding><system value="2.16.840.1.113883.2.1.3.2.4.17.289" /><code value="001" /><display value="GP Practice" /></coding></type><name value="BIRCHDALE ROAD MEDICAL CENTRE" /><telecom><system value="phone" /><value value="01234567890" /><use value="work" /></telecom><telecom><system value="phone" /><value value="07890123456" /><use value="work" /></telecom><address><use value="work" /><line value="NEWHAM CCG" /><postalCode value="E7 8AR" /></address></Organization></resource></entry><entry><resource><Organization><id value="6549ec2d-6c5e-4806-ad96-c3c80d4f12d6" /><meta><profile value="http://fhir.nhs.net/StructureDefinition/cofe-organization-ods-1" /></meta><identifier><system value="http://fhir.nhs.net/Id/ods-organization-code" /><value value="89999" /></identifier><name value="Bromley Healthcare" /></Organization></resource></entry><entry><resource><Organization><id value="c94bdec6-14d7-4e88-961a-2f1ba45f6aff" /><meta><profile value="http://fhir.nhs.net/StructureDefinition/cofe-organization-ods-1" /></meta><identifier><system value="http://fhir.nhs.net/Id/ods-organization-code" /><value value="89999" /></identifier><name value="Brent Community Health" /></Organization></resource></entry><entry><resource><Organization><id value="2ceb2362-1891-42fc-aacf-a4edd554468a" /><meta><profile value="http://fhir.nhs.net/StructureDefinition/cofe-organization-ods-1" /></meta><identifier><system value="http://fhir.nhs.net/Id/ods-organization-code" /><value value="89999" /></identifier><name value="Palliative care service" /></Organization></resource></entry><entry><resource><Organization><id value="51e111cc-dc41-40ba-8056-dde95a906a9a" /><meta><profile value="http://fhir.nhs.net/StructureDefinition/cofe-organization-ods-1" /></meta><identifier><system value="http://fhir.nhs.net/Id/ods-organization-code" /><value value="8A872" /></identifier><name value="St Joseph's Hospice" /></Organization></resource></entry><entry><resource><Organization><id value="feaf1e71-e422-4102-83bb-d00e9a6d44f0" /><meta><profile value="http://fhir.nhs.net/StructureDefinition/cofe-organization-ods-1" /></meta><identifier><system value="http://fhir.nhs.net/Id/ods-organization-code" /><value value="8GA90" /></identifier><name value="St Luke's Hospice" /></Organization></resource></entry><entry><resource><Organization><id value="1f0f5554-c375-4d6a-9941-ba42caeccb0a" /><meta><profile value="http://fhir.nhs.net/StructureDefinition/cofe-organization-ods-1" /></meta><identifier><system value="http://fhir.nhs.net/Id/ods-organization-code" /><value value="89999" /></identifier><name value="Barnet and Chase Farm" /></Organization></resource></entry><entry><resource><Organization><id value="1474506e-609d-412e-952b-4bc74d769038" /><meta><profile value="http://fhir.nhs.net/StructureDefinition/cofe-organization-ods-1" /></meta><identifier><system value="http://fhir.nhs.net/Id/ods-organization-code" /><value value="89999" /></identifier><name value="Royal Marsden" /></Organization></resource></entry><entry><resource><Organization><id value="525842de-2714-4136-b44d-ba027d4a21f0" /><meta><profile value="http://fhir.nhs.net/StructureDefinition/cofe-organization-ods-1" /></meta><identifier><system value="http://fhir.nhs.net/Id/ods-organization-code" /><value value="89999" /></identifier><name value="Care Team" /></Organization></resource></entry><entry><resource><Organization><id value="7b551079-9a05-4796-bf57-dc66b5c80585" /><meta><profile value="http://fhir.nhs.net/StructureDefinition/cofe-organization-ods-1" /></meta><identifier><system value="http://fhir.nhs.net/Id/ods-organization-code" /><value value="F82621" /></identifier><name value="Berwick Surgery" /></Organization></resource></entry><entry><resource><Organization><id value="7b652127-0840-47c0-801e-cf29ef4ef190" /><meta><profile value="http://fhir.nhs.net/StructureDefinition/cofe-organization-ods-1" /></meta><identifier><system value="http://fhir.nhs.net/Id/ods-organization-code" /><value value="89999" /></identifier><name value="London Borough of Bromley" /></Organization></resource></entry><entry><resource><Organization><id value="5584b63c-9a7d-4fce-854f-a10ed87218fe" /><meta><profile value="http://fhir.nhs.net/StructureDefinition/cofe-organization-ods-1" /></meta><identifier><system value="http://fhir.nhs.net/Id/ods-organization-code" /><value value="89999" /></identifier><name value="Care Contact" /></Organization></resource></entry></Bundle>