{"resourceType":"Bundle","id":"320d7908-d1ae-48aa-b055-94561076b945","meta":{"profile":["http://fhir.nhs.net/StructureDefinition/cofe-document-bundle-1"]},"type":"document","entry":[{"resource":{"resourceType":"Composition","id":"fa2a75a7-4257-422d-92a4-cf537f078e13","meta":{"profile":["http://fhir.nhs.net/StructureDefinition/cofe-composition-end-of-life-1"]},"text":{"status":"generated","div":"<div xmlns=\"http://www.w3.org/1999/xhtml\"><p style=\"font-size:20px\"><b>Patient Care Record - Mrs Diane Hembury</b></p><p style=\"color:red;font-size:20px\"><b>NHS Number (Verified) - 6305786860</b></p><p style=\"font-size:16px\"><b>Date of Birth:</b> 1977-05-01</p><p style=\"font-size:20px\"><b>Female</b></p><table width=\"100%\" border=\"1\" style=\"color:#000000; background-color:#dddddd\"><tbody><tr><td><p class=\"label\"> Communication Language </p><p>English (Excellent - Expressed spoken) <span class=\"label\">Preferred</span></p><p>French (Fair - Expressed spoken) </p></td></tr></tbody></table><table width=\"100%\" border=\"1\" style=\"color:#000000; background-color:#dddddd\"><tbody align=\"left\"><tr><td style=\"width:33%\"><b>Official Address</b></td><td style=\"width:33%\"><b>Temporary Address</b></td><td style=\"width:33%\"><b>Work Address</b></td></tr><tr><td style=\"width:33%\">120 Grove Street<br />Overtown<br />West Yorkshire<br />LS21 1PT</td><td style=\"width:33%\">15 Lucius Street<br />Foxtown<br />Bath<br />BA31 1BT</td><td style=\"width:33%\">Room 8<br />2nd floor<br />Flat 2<br />1 Lansdown Place<br />East Bath<br />BA1 5ET</td></tr></tbody></table><br /><table width=\"100%\" border=\"1\" cellpadding=\"5\"><tbody><tr><th><h3 style=\"text-align:left\">GP Practice</h3><table width=\"100%\" border=\"0\"><tbody align=\"left\"><tr><td style=\"width:50%\">BIRCHDALE ROAD MEDICAL CENTRE</td></tr></tbody></table><table width=\"100%\" border=\"1\" style=\"color:#000000; background-color:#dddddd\"><tbody align=\"left\"><tr><td style=\"width:50%\"><b>Address</b></td><td style=\"width:50%\"><b>Phone</b></td></tr><tr><td style=\"width:50%\">NEWHAM CCG<br />E7 8AR</td><td style=\"width:50%\">0123 4567890<br />07890123456</td></tr></tbody></table><br /><table width=\"100%\" border=\"1\" style=\"color:#000000; background-color:#dddddd\"><tbody align=\"left\"><tr><td style=\"width:50%\"><b>GP Practice Code</b></td></tr><tr><td style=\"width:50%\">F84641</td></tr></tbody></table><br /></th></tr></tbody></table><br /><table width=\"100%\" border=\"1\" style=\"color:#000000; background-color:#dddddd\"><tbody align=\"left\"><tr><td style=\"width:50%\"><b>GP Practice Code</b></td></tr><tr><td style=\"width:50%\">F84641</td></tr></tbody></table><br /><br /><table width=\"100%\" border=\"1\" style=\"color:#000000; background-color:#dddddd\"><tr><td><p style=\"font-size:16px\"><b>Document Created:</b> 03-Dec-2015, 08:39</p><p style=\"font-size:16px\"><b>Document Owner:</b>Coordinate My Care</p><p style=\"font-size:16px\"><b>Authored by:</b> Dr Mandy Shaw - Palliative Care Physician, Coordinate My Care on 02-Jun-2015, 09:05</p><p style=\"font-size:16px\"><b>Consent Status:</b>Consent given for electronic record sharing</p></td></tr></table><br /><br /><table width=\"100%\" border=\"1\" style=\"color:#000000; background-color:#dddddd\"><tr><td><p style=\"font-size:16px\"><b>Notified To:</b> Mr Sam Sudden - Not Known</p><p style=\"font-size:16px\"><b>Home Address:</b><br />1 James Street<br />Govford<br />GV11 7RD</p><p style=\"font-size:16px\"><b>Home Phone:</b> 01234567890</p><hr /><p style=\"font-size:16px\"><b>Notified To:</b> Mrs Samantha Sudden - Not Known</p><p style=\"font-size:16px\"><b>Home Address:</b><br />2 John Street<br />Govford<br />GV12 5RE</p><p style=\"font-size:16px\"><b>Home Phone:</b> 02468023456</p><hr /><p style=\"font-size:16px\"><b>Notified To:</b> Mrs Sarah Bloggs - Wife</p><p style=\"font-size:16px\"><b>Home Address:</b><br />321 Brighton Rock<br />Gumford<br />East Sussex</p><p style=\"font-size:16px\"><b>Home Phone:</b> 01235680246</p><hr /><p style=\"font-size:16px\"><b>Notified To:</b> Mr John Bloggs - Son</p><p style=\"font-size:16px\"><b>Home Address:</b><br />123 Brighton Pier<br />Gumford<br />East Sussex</p><p style=\"font-size:16px\"><b>Mobile Phone:</b> 09876543211</p><hr /><p style=\"font-size:16px\"><b>Notified To:</b> Mrs Sarah Bloggs - Not specified</p><hr /><p style=\"font-size:16px\"><b>Notified To:</b> Mr Peter Bloggs - Not specified</p><hr /><p style=\"font-size:16px\"><b>Notified To:</b> Mrs Joseph Balidon - Not specified</p><hr /><p style=\"font-size:16px\"><b>Notified To:</b> DR SINGARAVELOU B - General Practitioner</p><p style=\"font-size:16px\"><b>Notified Organization:</b> Berwick Surgery</p><p style=\"font-size:16px\"><b>Work Address:</b><br />36 DEWEY ROAD<br />RM10 8AR</p><p style=\"font-size:16px\"><b>DSwitchboard/Office Phone:</b> 01234567890</p><p style=\"font-size:16px\"><b>Direct Phone:</b> 02468024680</p><hr /><p style=\"font-size:16px\"><b>Notified To:</b> Ms E Nurse - District nurse</p><p style=\"font-size:16px\"><b>Notified Organization:</b> Bromley Healthcare</p><hr /><p style=\"font-size:16px\"><b>Notified To:</b> Dr B Community</p><p style=\"font-size:16px\"><b>Notified Organization:</b> Brent Community Health</p><hr /><p style=\"font-size:16px\"><b>Notified To:</b> Mrs G Palliative</p><p style=\"font-size:16px\"><b>Notified Organization:</b> Ealing Community Team</p><hr /><p style=\"font-size:16px\"><b>Notified To:</b> Dr A Hospice</p><p style=\"font-size:16px\"><b>Notified Organization:</b> St Joseph's Hospice</p><hr /><p style=\"font-size:16px\"><b>Notified To:</b> Dr A Hospice</p><p style=\"font-size:16px\"><b>Notified Organization:</b> St Luke's Hospice</p><hr /><p style=\"font-size:16px\"><b>Notified To:</b> Dr F Consultant - Hospital consultant</p><p style=\"font-size:16px\"><b>Notified Organization:</b> Barnet and Chase Farm</p><hr /><p style=\"font-size:16px\"><b>Notified To:</b> Dr G Riley - Hospital consultant</p><p style=\"font-size:16px\"><b>Notified Organization:</b> Royal Marsden</p><hr /><p style=\"font-size:16px\"><b>Notified To:</b>Ms H Other</p><p style=\"font-size:16px\"><b>Notified Organization:</b> Care Team</p><hr /><p style=\"font-size:16px\"><b>Notified To:</b>GP Daytime (key contact)</p><p style=\"font-size:16px\"><b>Notified Organization:</b> Berwick Surgery</p><hr /><p style=\"font-size:16px\"><b>Notified Organization:</b> Berwick Surgery</p><hr /><p style=\"font-size:16px\"><b>Notified To:</b>Ms A Care-Contact - Care Assistant</p><p style=\"font-size:16px\"><b>Notified Organization:</b> Care Contact</p><hr /></td></tr></table><br /><br /></div>"},"extension":[{"url":"http://fhir.nhs.net/StructureDefinition/extension-cofe-information-recipient-1","valueUri":"http://fhir.nhs.net/StructureDefinition/extension-cofe-information-recipient-1"},{"url":"http://fhir.nhs.net/StructureDefinition/extension-cofe-data-enterer-1","valueUri":"http://fhir.nhs.net/StructureDefinition/extension-cofe-data-enterer-1"},{"url":"http://fhir.nhs.net/StructureDefinition/extension-cofe-informant-1","valueUri":"http://fhir.nhs.net/StructureDefinition/extension-cofe-informant-1"},{"url":"http://fhir.nhs.net/StructureDefinition/extension-participant-1","valueReference":{"reference":"Practitioner/e16e1d5a-17a9-40f4-a5b8-3d376a99fd38"}},{"url":"http://fhir.nhs.net/StructureDefinition/extension-cofe-performer-1","valueUri":"http://fhir.nhs.net/StructureDefinition/extension-cofe-performer-1"},{"url":"http://fhir.nhs.net/StructureDefinition/extension-cofe-authorization-1","valueUri":"http://fhir.nhs.net/StructureDefinition/extension-cofe-authorization-1"}],"date":"2015-07-11T10:11:15+00:00","type":{"coding":[{"system":"http://fhir.nhs.net/ValueSet/correspondence-document-type-1","code":"861421000000109","display":"End of Life Care Coordination Summary"}],"text":"End of Life Care Coordination Summary"},"class":{"coding":[{"system":"http://hl7.org/fhir/ValueSet/doc-classcodes","code":"700232004","display":"general medical service"}],"text":"general medical service"},"title":"End of Life Care Coordination Summary","status":"final","confidentiality":"V","subject":{"reference":"Patient/31686b67-9f20-4644-9a54-193d2f91de57","display":"Mrs Diane Hembury"},"author":[{"reference":"Practitioner924ad2f1-63dc-40cf-9f54-8da0fa3ba096","display":"Dr Mandy Shaw"}],"custodian":{"reference":"Organization/1474506e-609d-412e-952b-4bc74d769038","display":"Coordinate My Care"},"section":[{"title":"Patient Details","code":{"coding":[{"system":"http://fhir.nhs.net/ValueSet/cofe-record-section-1","code":"PAT","display":"Patient Details"}]}},{"title":"Individual (Special) requirements","code":{"coding":[{"system":"http://snomed.info/sct","code":"886741000000100","display":"Individual requirements"}]},"text":{"status":"generated","div":"<div xmlns=\"http://www.w3.org/1999/xhtml\"><h2>Individual (Special) requirements</h2><table style=\"color:#000000; background-color:#dddddd\" width=\"100%\" border=\"1\"><tbody><tr><th>Communication preferences</th></tr><tr><td>French spoken, English preferred</td></tr></tbody></table><br /><table style=\"color:#000000; background-color:#dddddd\" width=\"100%\" border=\"1\"><tbody><tr><th>Disabilities</th></tr><tr><td>1.Hearing loss</td></tr><tr><td>2.Visual Impairment</td></tr><tr><td>3.Difficulty with Verbal communication</td></tr><tr><td>4.Mental Impairment</td></tr><tr><td>4A.Physical disability</td></tr><tr><td>5.Other disability</td></tr><tr><td>6.Unable to summon help in an emergency</td></tr><tr><td>7.Lacks safety awareness</td></tr><tr><td>8.No known disability</td></tr><tr><td>9.Person reports no current disability</td></tr></tbody></table><br /><table style=\"color:#000000; background-color:#dddddd\" width=\"100%\" border=\"1\"><tbody><tr><th>Disability details</th></tr><tr><td> No further information is available</td></tr></tbody></table><br /></div>"},"entry":[{"reference":"Condition/1c7908dd-2c04-47ca-97c9-9d18082fec80","display":"cofe-disability-condition-1-example-1"}]},{"title":"Diagnosis","code":{"coding":[{"system":"http://snomed.info/sct","code":"887161000000102","display":"Diagnoses"}]},"text":{"status":"generated","div":"<div xmlns=\"http://www.w3.org/1999/xhtml\"><h2>Diagnoses</h2><table width=\"100%\" border=\"1\" style=\"color:#000000; background-color:#dddddd\"><tbody align=\"left\"><tr><th align=\"left\">Classified diagnosis</th><td>Cancer Diagnosis – Independent Multiple Sites</td></tr><tr><th align=\"left\">Diagnosis category</th><td>1.Cancer</td></tr></tbody></table><br /><table style=\"color:#000000; background-color:#dddddd\" width=\"100%\" border=\"1\"><tbody><tr><th align=\"left\">Diagnosis</th><th align=\"left\">Main?</th><th align=\"left\">Condition Date</th><th align=\"left\">End Date</th><th align=\"left\">Details</th><th align=\"left\">Long-term?</th><th align=\"left\">Life-threatening?</th></tr><tr><td>Cancer Diagnosis – Independent Multiple Sites</td><td>Yes</td><td /><td /><td>cancer diagnosis details</td><td>Yes</td><td>No</td></tr><tr><td>Chronic Obstructive Pulmonary Disease (COPD)</td><td /><td>01 Feb 2015</td><td>02 Feb 2015</td><td>Diagnosis 2</td><td>Yes</td><td>Yes</td></tr></tbody></table><br /><table style=\"color:#000000; background-color:#dddddd\" width=\"100%\" border=\"1\"><tbody><tr><th align=\"left\" colspan=\"7\">Diagnosis awareness</th></tr><tr><td style=\"width:50%\">Is the Patient Aware of Diagnosis?</td><td style=\"width:50%\">patient aware of diagnosis</td></tr><tr><td>Is the Carer Aware of Diagnosis?</td><td>carer aware of diagnosis</td></tr></tbody></table><br /></div>"},"entry":[{"reference":"Condition/e3d96a2e-abbe-4e78-93dd-e5870fc4f796","display":"COFE-Diagnosis-Condition-1- Example-1"},{"reference":"Condition/98d29b5a-da2b-4f48-99b8-53924642c9fd","display":"COFE-Diagnosis-Condition-1-Example-2"}]},{"title":"Relevant past medical, surgical and mental health history","code":{"coding":[{"system":"http://snomed.info/sct","code":"933271000000106","display":"Relevant Past Medical Surgical And Mental Health History"}]},"text":{"status":"generated","div":"<div xmlns=\"http://www.w3.org/1999/xhtml\"><h2>Significant Past Medical History</h2><table style=\"color:#000000; background-color:#dddddd\" width=\"100%\" border=\"1\"><tbody><tr><th>Significant problems and issues</th></tr><tr><td>Anterior chest pain</td></tr></tbody></table><br /></div>"},"entry":[{"reference":"List/1dg994ec-ce2b-462e-9488-c3c977fe76cd","display":"cofe-spmh-list-1"}]},{"title":"Medications and medical devices","code":{"coding":[{"system":"http://snomed.info/sct","code":"933361000000108","display":"Medications and medical devices"}]},"text":{"status":"generated","div":"<div xmlns=\"http://www.w3.org/1999/xhtml\"><h2>Medications and medical devices</h2><table style=\"color:#000000; background-color:#dddddd\" width=\"100%\" border=\"1\"><tbody><tr><td>Has patient been prescribed strong opioids?</td><td>Y</td></tr></tbody></table><br /><table style=\"color:#000000; background-color:#dddddd\" width=\"100%\" border=\"1\"><caption>Current Medications</caption><tbody><tr><th>Drug</th><th>Status</th><th>Start Date</th><th>End Date</th></tr><tr><td>Generic name: Paroxetine, Brand name: brand1, Type of drug: Antidepressant,\r\n                                        Dose: 1mg, Route: Nasogastric, Frequency: daily\r\n                                    </td><td>Current</td><td>12-Feb-2015</td><td>11-Feb-2015</td></tr><tr><td>Generic name: Glycerin suppository, Brand name: brand2, Type of drug: Rectal\r\n                                        Laxative, Dose: 2mg, Route: Rectal, Frequency: 4 hours\r\n                                    </td><td>Current</td><td>12-Feb-2015</td><td>26-Feb-2015</td></tr></tbody></table><br /><table style=\"color:#000000; background-color:#dddddd\" width=\"100%\" border=\"1\"><caption>Just in Case Medication</caption><tbody><tr><th>Drug</th><th>Status</th><th>Start Date</th><th>End Date</th></tr><tr><td>Generic name: Midazolam, Brand name: brand3, Type of drug: IV/IM\r\n                                        Anxiolytic/Sedative, Dose: 4mg, Route: Intramuscular, Frequency: 3\r\n                                    </td><td>Just in Case</td><td>12-Feb-2015</td><td>03-Feb-2015</td></tr><tr><td>Generic name: Other (Other: other drug), Brand name: brand4, Type of drug:\r\n                                        Rectal Anticonvulsant, Dose: 8mg, Route: Rectal, Frequency: 20\r\n                                    </td><td>Just in Case</td><td>12-Feb-2015</td><td>11-Feb-2015</td></tr></tbody></table><br /></div>"},"entry":[{"reference":"MedicationAdministration/6be34aca-47b9-4812-9c31-287d10c3ad11","display":"COFE-MedsAndDevices-MedicationAdministration-1-Example-1"}]},{"title":"Allergies and adverse reactions","code":{"coding":[{"system":"http://snomed.info/sct","code":"886921000000105","display":"Allergies and adverse reaction"}]},"text":{"status":"generated","div":"<div xmlns=\"http://www.w3.org/1999/xhtml\"><h2>Allergies and adverse reactions</h2><table style=\"color:#000000; background-color:#dddddd\" width=\"100%\" border=\"1\"><tbody><tr><th style=\"font-size:20px\" align=\"left\">Allergies and adverse reactions</th></tr><tr><td>Sticking plaster, Penicillin</td></tr></tbody></table><br /></div>"},"entry":[{"reference":"AllergyIntolerence/97f0402c-ecf2-4d41-aa56-e6028f097081","display":"COFE-AllergicOrAdverseReactions-AllergyIntolerence-Example-1"},{"reference":"AllergyIntolerence/caccc801-17a9-4c65-948a-defa33f4ae90","display":"COFE-AllergicOrAdverseReactions-AllergyIntolerence-Example-2"}]},{"title":"Safety Alerts","code":{"coding":[{"system":"http://snomed.info/sct","code":"886931000000107","display":"Safety alerts"}]},"text":{"status":"generated","div":"<div xmlns=\"http://www.w3.org/1999/xhtml\"><h2>Safety Alerts</h2><table style=\"color:#000000; background-color:#dddddd\" width=\"100%\" border=\"1\"><tbody><tr><th style=\"font-size:20px\" align=\"left\">Risks to others</th></tr><tr><td>Dangerous Dog</td></tr></tbody></table><br /></div>"},"entry":[{"reference":"Flag/1df994ec-ce2b-462e-9487-c3c977fe76cd","display":"COFE-RiskFlag-1-Example-2"}]},{"title":"Legal Information","code":{"coding":[{"system":"http://snomed.info/sct","code":"886961000000102","display":"Legal information "}]},"text":{"status":"generated","div":"<div xmlns=\"http://www.w3.org/1999/xhtml\"><h2>Legal Information</h2><table style=\"color:#000000; background-color:#dddddd\" width=\"100%\" border=\"1\"><tbody><tr><th style=\"font-size:20px\" colspan=\"2\" align=\"left\">Legal information</th></tr><tr><td>Lasting or enduring power of attorney or similar</td><td>1.Patient consents</td></tr><tr><td>Mental Health Act - Legal Status</td><td>other mental health act</td></tr><tr><td>Mental capacity assessment</td><td>other mental capacity</td></tr></tbody></table><br /></div>"},"entry":[{"reference":"Flag/2f761868-7bf9-41f8-ac98-9854fe2163d1","display":"COFE-LastingPowerOfAttorney-1-Example-3"}]},{"title":"Social context","code":{"coding":[{"system":"http://snomed.info/sct","code":"887051000000101","display":"Social context"}]},"text":{"status":"generated","div":"<div xmlns=\"http://www.w3.org/1999/xhtml\"><h2>Social Context</h2><table style=\"color:#000000; background-color:#dddddd\" width=\"100%\" border=\"1\"><tbody><tr><th>Accommodation</th></tr><tr><td>Second Floor Lives Alone</td></tr></tbody></table><br /></div>"},"entry":[{"reference":"QuestionnaireResponse/9c7eb664-d257-4250-aee2-20ad202919e8","display":"COFE-Accomodation-QuestionnaireResponse-1-Example-1"}]},{"title":"Person and carer concerns, expectations and wishes","code":{"coding":[{"system":"http://fhir.nhs.net/ValueSet/fhir-observation-1","code":"887131000000107","display":"Patient and carer concerns"}]},"text":{"status":"generated","div":"<div xmlns=\"http://www.w3.org/1999/xhtml\"><h2>End of life preferences</h2><table style=\"color:black; background-color:#dddddd\" width=\"100%\" border=\"1\"><tbody><tr><th colspan=\"2\">End of life preferences</th></tr><tr><td>Patient’s preferred place of care</td><td>1.Home</td></tr><tr><td>Patient’s preferred place of death</td><td>2.Care Home</td></tr></tbody></table><br /></div>"},"entry":[{"reference":"QuestionnaireResponse/aa161ef6-63de-4839-a37b-742e3dfeb7fe","display":"COFE-PersonalCarePreference-QuestionnaireResponse-1-Example-1"}]},{"title":"Crisis Care Plan","code":{"coding":[{"system":"http://snomed.info/sct","code":"325681000000102","display":"Crisis Care Plan"}]},"text":{"status":"generated","div":"<div xmlns=\"http://www.w3.org/1999/xhtml\"><h2>Crisis Care Plan</h2><table width=\"100%\" border=\"1\" style=\"color:#000000; background-color:#dddddd\"><tbody><tr><th style=\"font-size:20px\" align=\"left\">Crisis Care Observations</th></tr><tr><td>Crisis Care Observation</td><td>In Case of Pain Crises</td></tr><tr><td>Crisis Care Observation</td><td>In Case of Breathlessness</td></tr><tr><td>Crisis Care Observation</td><td>In Case of Nausea/Vomiting</td></tr></tbody></table><br /><table width=\"100%\" border=\"1\" style=\"color:#000000; background-color:#dddddd\"><tbody><tr><th style=\"font-size:20px\" align=\"left\" colspan=\"2\">EOL Care Plan</th></tr><tr><td>EOL Planned Review Date</td><td>20160502</td></tr><tr><td>Plan Agreed with Patient Carer</td><td>Full, active treatment plan, including in acute hospital setting</td></tr></tbody></table><br /><table width=\"100%\" border=\"1\" style=\"color:#000000; background-color:#dddddd\"><tbody><tr><th style=\"font-size:20px\" align=\"left\" colspan=\"2\">DNACPR</th></tr><tr><td>Has a discussion regarding CPR taken place with the patient?</td><td>1.Yes</td></tr><tr><td>Should CPR commence?</td><td>2.No</td></tr><tr><td>Date CPR decision made</td><td>11-Feb-2015</td></tr><tr><td>EOL Do Not Attempt Cardio-pulmonary Resuscitation Review Date</td><td>02-Jun-2016</td></tr><tr><td>EOL Resuscitation Status</td><td>Not for cardiopulmonary resuscitation</td></tr><tr><td>EOL Do Not Attempt Cardio-pulmonary Resuscitation</td><td>Not for attempted cardiopulmonary resuscitation</td></tr><tr><td>EOL Do Not Attempt Cardio-pulmonary Resuscitation Docs Location</td><td>DNACPR document in top desk drawer in the patient's living room</td></tr><tr><td>Discussion about do not attempt cardiopulmonary resuscitation clinical decision</td><td>Family member informed of cardiopulmonary resuscitation clinical decision</td></tr></tbody></table><br /><table width=\"100%\" border=\"1\" style=\"color:#000000; background-color:#dddddd\"><tbody><tr><th style=\"font-size:20px\" align=\"left\" colspan=\"2\">Issue of palliative care anticipatory medication box</th></tr><tr><td>EOL Anticipatory Medicine Box Location</td><td>On shelf in front room</td></tr></tbody></table><br /></div>"},"entry":[{"reference":"Observation/9322a1b5-5264-47ee-a0b6-e30fafa7f1ac","display":"COFE-CrisisCarePlan-Observation-1-Example-1"},{"reference":"CarePlan/fea7bf33-3bc1-4eb7-856c-badb3a92135a","display":"COFE-EndofLifeCarePlan-CarePlan-1-Example-1"},{"reference":"QuestionnaireResponse/9c7eb664-d257-4250-aee2-20ad202919e8","display":"COFE-DNACRPDecision-Questionnaire-1-Example-1"},{"reference":"QuestionnaireResponse/046fcf2d-80b0-4912-a50c-dd1293dbbed8","display":"COFE-IssueofAnticipatoryMeds-1-example-1"}]},{"title":"End of life care","code":{"coding":[{"system":"http://fhir.nhs.net/ValueSet/fhir-observation-1","code":"DEFINECODE","display":"End of life care"}]},"text":{"status":"generated","div":"<div xmlns=\"http://www.w3.org/1999/xhtml\"><h2>End of life care</h2><table style=\"color:black; background-color:#dddddd\" width=\"100%\" border=\"1\"><tbody><tr><th style=\"font-size:20px\" align=\"left\">Care plan review date</th></tr><tr><td>04/07/2015</td></tr></tbody></table><br /></div>"},"entry":[{"reference":"CarePlan/fea7bf33-3bc1-4eb7-851c-badb3a92135a","display":"COFE-EndofLifeCarePlan-CarePlan-1-Example-2.xml"}]}]}},{"resource":{"resourceType":"Condition","id":"e3d96a2e-abbe-4e78-93dd-e5870fc4f796","meta":{"profile":["http://fhir.nhs.net/StructureDefinition/cofe-diagnosis-condition-1"]},"extension":[{"url":"http://fhir.nhs.net/StructureDefinition/extension-cofe-diagnosisawareness-1","valueCodeableConcept":{"coding":[{"system":"http://snomed.info/sct","code":"473302008","display":"Aware of diagnosis"}]}}],"identifier":[{"value":"16850E54-63F1-4983-A6ED-233F99C390F9"}],"patient":{"reference":"Patient/31686b67-9f20-4644-9a54-193d2f91de57","display":"Diane Hembury"},"asserter":{"reference":"Practitioner/f7737bf5-cfe7-491c-af3a-6f7177d5aee1","display":"Dr Tom Wood"},"code":{"coding":[{"system":"http://snomed.info/sct","code":"405843009:106229004=8319008","display":"405843009 |Widespread metastatic malignant neoplastic disease|:106229004 |Qualifier for type of diagnosis| = 8319008 |Principal diagnosis|"}]},"category":{"coding":[{"system":"http://snomed.info/sct","code":"439401001","display":"Diagnosis"}]},"verificationStatus":"confirmed","onsetPeriod":{"start":"2016-01-02T09:05:00+00:00"}}},{"resource":{"resourceType":"Condition","id":"98d29b5a-da2b-4f48-99b8-53924642c9fd","meta":{"profile":["http://fhir.nhs.net/StructureDefinition/cofe-diagnosis-condition-1"]},"extension":[{"url":"http://fhir.nhs.net/StructureDefinition/extension-cofe-diagnosisawareness-1","valueCodeableConcept":{"coding":[{"system":"http://snomed.info/sct","code":"473302008","display":"Aware of diagnosis"}]}}],"identifier":[{"value":"16850E54-63F1-4983-A6ED-233F99C390F9"}],"patient":{"reference":"Patient/31686b67-9f20-4644-9a54-193d2f91de57","display":"Diane Hembury"},"asserter":{"reference":"Practitioner/8ece9986-9af0-4882-b0cf-23a96ea7b509","display":"Dr Matt Smith"},"code":{"coding":[{"system":"http://snomed.info/sct","code":"13645005 :106229004=85097005","display":"13645005 | Chronic obstructive lung disease | : 106229004 | Qualifier for type of diagnosis | = 85097005 | Secondary diagnosis |"}]},"category":{"coding":[{"system":"http://snomed.info/sct","code":"439401001","display":"Diagnosis"}]},"verificationStatus":"confirmed","onsetPeriod":{"start":"2016-01-02T09:06:00+00:00"}}},{"resource":{"resourceType":"List","id":"1dg994ec-ce2b-462e-9488-c3c977fe76cd","meta":{"profile":["http://fhir.nhs.net/StructureDefinition/cofe-spmh-list-1"]},"identifier":[{"system":"a9fcea7c-fcdf-4d17-a5e0-f26dda030b59","value":"23974652"}],"code":{"coding":[{"extension":[{"url":"http://hl7.org/fhir/ValueSet/list-example-codes"}],"code":"417662000","display":"History of clinical finding in subject (situation)"}],"text":"SPMH - Significant Past Medical History"},"subject":{"reference":"Patient/31686b67-9f20-4644-9a54-193d2f91de57","display":"Mrs Diane Hembury"},"status":"current","date":"2012-11-25T22:17:00+11:00","mode":"changes","entry":[{"date":"2016-03-02T09:05:00+00:00","item":{"reference":"Condition/e3d96a2e-abbe-4e78-93dd-e5870fc4f790","display":"COFE-Diagnosis-Condition-1-Example-3"}}]}},{"resource":{"resourceType":"Condition","id":"e3d96a2e-abbe-4e78-93dd-e5870fc4f790","meta":{"profile":["http://fhir.nhs.net/StructureDefinition/cofe-diagnosis-condition-1"]},"extension":[{"url":"http://fhir.nhs.net/StructureDefinition/extension-cofe-diagnosisawareness-1","valueCodeableConcept":{"coding":[{"system":"http://snomed.info/sct","code":"473302008","display":"Aware of diagnosis"}]}}],"identifier":[{"value":"16850E54-63F1-4983-A6ED-233F99C390F9"}],"patient":{"reference":"Patient/31686b67-9f20-4644-9a54-193d2f91de57","display":"Diane Hembury"},"code":{"coding":[{"system":"http://snomed.info/sct","code":"161973001:106229004=8319008","display":"161973001 |Anterior chest wall pain|:106229004 |Qualifier for type of diagnosis| = 8319008 |Principal diagnosis|"}]},"verificationStatus":"confirmed"}},{"resource":{"resourceType":"MedicationAdministration","id":"6be34aca-47b9-4812-9c31-287d10c3ad11","meta":{"profile":["http://fhir.nhs.net/StructureDefinition/cofe-medsanddevices-medicationadministration-1"]},"identifier":[{"value":"333D02F6-3335-3335-3334-333149F1A0F2"}],"status":"completed","patient":{"reference":"Patient/31686b67-9f20-4644-9a54-193d2f91de57","display":"Mrs Diane Hembury"},"practitioner":{"reference":"Practitioner924ad2f1-63dc-40cf-9f54-8da0fa3ba096","display":"Dr Mandy Shaw"},"effectiveTimePeriod":{"start":"2015-02-12","end":"2015-02-26"},"medicationCodeableConcept":{"coding":[{"system":"http://snomed.info/sct","code":"TBA","display":"Paroxetine 10mg/5ml oral suspension"}]},"note":"Patient must be prescribed Brand1","dosage":{"text":"10mg to be taken daily. Nasogastric route","route":{"coding":[{"system":"http://fhir.nhs.net/ValueSet/nhs-e-prescribing-route-of-administration-1","code":"127492001","display":"Nasogastric route"}]},"quantity":{"value":10,"unit":"mg","system":"http://unitsofmeasure.org","code":"mg"},"rateRatio":{"numerator":{"value":10,"unit":"mg","system":"http://unitsofmeasure.org","code":"mg"},"denominator":{"value":24,"unit":"hours","system":"http://snomed.info/sct","code":"258702006"}}}}},{"resource":{"resourceType":"AllergyIntolerance","id":"97f0402c-ecf2-4d41-aa56-e6028f097081","meta":{"profile":["http://fhir.nhs.net/StructureDefinition/cofe-allergicoradversereactions-allergyintolerence-1"]},"identifier":[{"value":"c01c706a-ae0b-4910-b751-fc3f3ec5197c"}],"onset":"2013-02-01","patient":{"reference":"Patient/31686b67-9f20-4644-9a54-193d2f91de57","display":"Diane Hembury"},"substance":{"coding":[{"system":"http://snomed.info/sct","code":"14423008","display":"Sticking plaster"}]},"status":"confirmed","reaction":[{"substance":{"coding":[{"system":"http://snomed.info/sct","code":"14423008","display":"Sticking plaster"}]},"manifestation":[{"coding":[{"system":"http://snomed.info/sct","code":"291000119100","display":"Contact dermatitis caused by chemical"}]}]}]}},{"resource":{"resourceType":"AllergyIntolerance","id":"caccc801-17a9-4c65-948a-defa33f4ae90","meta":{"profile":["http://fhir.nhs.net/StructureDefinition/cofe-allergicoradversereactions-allergyintolerence-1"]},"identifier":[{"value":"8086b754-3399-4e3e-ae83-8ceff4bbdc76"}],"onset":"2013-02-01","patient":{"reference":"Patient/31686b67-9f20-4644-9a54-193d2f91de57","display":"Diane Hembury"},"substance":{"coding":[{"system":"http://snomed.info/sct","code":"373270004","display":"Penicillin"}]},"status":"confirmed","reaction":[{"substance":{"coding":[{"system":"http://snomed.info/sct","code":"373270004","display":"Penicillin"}]},"manifestation":[{"coding":[{"system":"http://snomed.info/sct","code":"292954005","display":"Penicillin adverse reaction"}]}]}]}},{"resource":{"resourceType":"Flag","id":"1df994ec-ce2b-462e-9487-c3c977fe76cd","meta":{"profile":["http://fhir.nhs.net/StructureDefinition/cofe-risk-flag-1"]},"identifier":[{"value":"43F99D87-430F-4C34-90A9-67B6F1E2D881"}],"category":{"coding":[{"system":"http://fhir.nhs.net/ValueSet/flag-category-1","code":"RTO","display":"Risk to Others"}]},"status":"active","subject":{"reference":"Patient/31686b67-9f20-4644-9a54-193d2f91de57","display":"Diane Hembury"},"code":{"text":"Dangerous Dog"}}},{"resource":{"resourceType":"Observation","id":"2f761868-7bf9-41f8-ac98-9854fe2163d1","meta":{"profile":["http://fhir.nhs.net/StructureDefinition/cofe-lastingpowerofattorney-observation-1"]},"identifier":[{"id":"4d70d576-05d4-4beb-b691-f25cfbce1f15"}],"status":"final","category":{"coding":[{"system":"http://fhir.nhs.net/ValueSet/eol-cda-observation-type-1","code":"EOLLPA","display":"EOL Authority to Lasting Power of Attorney"}]},"code":{"coding":[{"system":"http://snomed.info/sct","code":"816381000000105","display":"Has appointed person with personal welfare lasting power of attorney with authority for life sustaining decisions (Mental Capacity Act 2005) (finding)"}]},"performer":[{"reference":"RelatedPerson/b871ba7b-d6bb-46bf-8f5b-12994f51fd65"}]}},{"resource":{"resourceType":"QuestionnaireResponse","id":"9c7eb664-d257-4250-aee2-20ad202919e8","meta":{"profile":["http://fhir.nhs.net/StructureDefinition/cofe-accommodation-questionnaireresponse-1"]},"identifier":{"value":"fd60ffd5-3e41-4b68-aa62-37f5407d8c04"},"status":"completed","subject":{"reference":"Patient/31686b67-9f20-4644-9a54-193d2f91de57","display":"Mrs Diane Hembury"},"authored":"2016-03-02T09:05:00+01:00","group":{"question":[{"linkId":"ACCDET","text":"Which floor is the patient located on?","answer":[{"valueString":"Second Floor"}]},{"linkId":"ACCDET","text":"Does the patient live alone?","answer":[{"valueString":"Lives alone"}]}]}}},{"resource":{"resourceType":"Observation","id":"9322a1b5-5264-47ee-a0b6-e30fafa7f1ac","meta":{"profile":["http://fhir.nhs.net/StructureDefinition/cofe-crisiscareplan-observation-1"]},"status":"final","code":{"coding":[{"system":"http://fhir.nhs.net/ValueSet/crisiscareplan-observation-1","code":"CCO","display":"Crisis Care Observation"}]},"component":[{"code":{"coding":[{"system":"http://fhir.nhs.net/ValueSet/crisiscareplan-observation-1","code":"ICOPC","display":"In Case of Pain Crises"}]}},{"code":{"coding":[{"system":"http://fhir.nhs.net/ValueSet/crisiscareplan-observation-1","code":"ICOB","display":"In Case of Breathlessness"}]}},{"code":{"coding":[{"system":"http://fhir.nhs.net/ValueSet/crisiscareplan-observation-1","code":"ICONV","display":"In Case of Nausea/Vomiting"}]}}]}},{"resource":{"resourceType":"CarePlan","id":"fea7bf33-3bc1-4eb7-856c-badb3a92135a","meta":{"profile":["http://fhir.nhs.net/StructureDefinition/cofe-endoflifecareplan-careplan-1"]},"extension":[{"url":"http://fhir.nhs.net/StructureDefinition/extension-cofe-planned-review-date-1","valueDate":"2016-05-02"},{"url":"http://fhir.nhs.net/StructureDefinition/extension-cofe-plannedagreementtext-1","valueString":"Full, active treatment plan, including in acute hospital setting"}],"identifier":[{"value":"11a98de8-4c44-424c-bb6d-0049c4d2b777"}],"subject":{"reference":"Patient/31686b67-9f20-4644-9a54-193d2f91de57","display":"Diane Hembury"},"status":"active","category":[{"coding":[{"system":"http://fhir.nhs.net/ValueSet/eol-cda-observation-type-1","code":"EOLCP","display":"EOL Care Plan"}]}]}},{"resource":{"resourceType":"QuestionnaireResponse","id":"9c7eb664-d257-4250-aee2-20ad202919e8","meta":{"profile":["http://fhir.nhs.net/StructureDefinition/cofe-dnacprdecision-questionnaireresponse-1"]},"identifier":{"value":"fd60ffd5-3e41-4b68-aa62-37f5407d8c04"},"status":"completed","subject":{"reference":"Patient/31686b67-9f20-4644-9a54-193d2f91de57","display":"Diane Hembury"},"author":{"reference":"Practitioner/78d7ac3f-17a4-419a-964f-84148c9eef94","display":"Dr. Mandy Shaw"},"group":{"question":[{"linkId":"EOLDCR","text":"Should cardio-pulmonary resuscitation commence?","answer":[{"valueCoding":{"system":"http://fhir.nhs.net/ValueSet/cpr-decision-response-1","code":"450476008","display":"Not for cardiopulmonary resuscitation"}}]},{"linkId":"EOLRST","text":"Has the DNA CPR decision been discussed with the patient?","answer":[{"valueCoding":{"system":"http://fhir.nhs.net/ValueSet/cpr-decision-discussion-response-1","code":"921551000000101","display":"Discussion about do not attempt cardiopulmonary resuscitation clinical decision"}}]},{"linkId":"EOLDCR","text":"What date was the DNA CPR decision made?","answer":[{"valueDate":"2015-02-11"}]},{"linkId":"EOLDCR","text":"Has the DNA CPR decision been discussed with the patient's family/carer?","answer":[{"valueCoding":{"system":"http://fhir.nhs.net/ValueSet/cpr-decision-discussion-family-carer-response-1","code":"975291000000108","display":"Family member informed of cardiopulmonary resuscitation clinical decision"}}]},{"linkId":"EOLDCR","text":"Who made the DNA CPR decision?","answer":[{"valueString":"Diane Hembury"}]},{"linkId":"EOLDRD","text":"What date should the DNA CPR decision be reviewed?","answer":[{"valueDate":"2016-06-02"}]}]}}},{"resource":{"resourceType":"Procedure","id":"046fcf2d-80b0-4912-a50c-dd1293dbbed8","meta":{"profile":["http://fhir.nhs.net/StructureDefinition/cofe-issueofanticipatorymeds-procedure-1"]},"subject":{"reference":"http://fhir.nhs.net/StructureDefinition/cofe-patient-1"},"status":"completed","code":{"coding":[{"system":"http://fhir.nhs.net/ValueSet/issue-of-anticipatory-meds-1","code":"76201000000102","display":"Issue of palliative care anticipatory medication box (procedure)"}]},"performer":[{"actor":{"reference":"http://fhir.nhs.net/StructureDefinition/cofe-practitioner-1"}}]}},{"resource":{"resourceType":"QuestionnaireResponse","id":"aa161ef6-63de-4839-a37b-742e3dfeb7fe","meta":{"profile":["http://fhir.nhs.net/StructureDefinition/cofe-personalcarepreference-questionnaireresponse-1"]},"identifier":{"value":"6add94bb-39c1-4140-b328-f31fedff28a4"},"status":"completed","subject":{"reference":"Patient/31686b67-9f20-4644-9a54-193d2f91de57","display":"Diane Hembury"},"group":{"question":[{"linkId":"EOLPPC","text":"Where has the individual identified as their preferred place to receive care?","answer":[{"valueCoding":{"system":"http://fhir.nhs.net/ValueSet/preferred-place-of-care-snct-1","code":" 505401000000102","display":"Preferred place of care - home"}}]},{"linkId":"EOLPPD","text":"Where has the individual identified as their preferred place to die?","answer":[{"valueCoding":{"system":"http://fhir.nhs.net/ValueSet/preferred-place-of-death-snct-1","code":"710571000000101","display":"Preferred place of death: care home"}}]}]}}},{"resource":{"resourceType":"CarePlan","id":"fea7bf33-3bc1-4eb7-851c-badb3a92135a","meta":{"profile":["http://fhir.nhs.net/StructureDefinition/cofe-endoflifecareplan-careplan-1"]},"extension":[{"url":"http://fhir.nhs.net/StructureDefinition/extension-cofe-planned-review-date-1","valueDate":"2015-07-04"},{"url":"http://fhir.nhs.net/StructureDefinition/extension-cofe-plannedagreementtext-1","valueString":"Full, active treatment plan, including in acute hospital setting"}],"identifier":[{"value":"11a98de8-4c44-424c-bb6d-0049c4d2b777"}],"subject":{"reference":"Patient/31686b67-9f20-4644-9a54-193d2f91de57","display":"Diane Hembury"},"status":"active","category":[{"coding":[{"system":"http://fhir.nhs.net/ValueSet/eol-cda-observation-type-1","code":"EOLCP","display":"EOL Care Plan"}]}]}},{"resource":{"resourceType":"Patient","id":"31686b67-9f20-4644-9a54-193d2f91de57","meta":{"profile":["http://fhir.nhs.net/StructureDefinition/cofe-patient-1"]},"identifier":[{"type":{"coding":[{"system":"http://fhir.nhs.net/ValueSet/nhs-number-status-indicator-1","code":"01","display":"Number present and verified"}]},"system":"http://fhir.nhs.net/Id/nhs-number","value":"6305786860"}],"name":[{"use":"official","family":["Hembury"],"given":["Diane"],"prefix":["Mrs"]},{"use":"usual","given":["Di"]}],"gender":"female","birthDate":"1977-05-01","address":[{"use":"home","line":["21, Grove Street"],"city":"Overtown","district":"Bath","postalCode":"BA21 1PF"},{"use":"temp","line":["15 Lucius Street"],"city":"Foxtown","district":"Bath","postalCode":"BA31 1BT"},{"use":"work","line":["Room 8","2nd floor","Flat 2","1 Lansdown Place"],"city":"East Bath","postalCode":"BA1 5ET"}],"communication":[{"language":{"extension":[{"url":"http://fhir.nhs.net/StructureDefinition/extension-cofe-language-ability-proficiency-1","valueCodeableConcept":{"coding":[{"system":" http://fhir.nhs.net/ValueSet/language-ability-proficiency-1","code":"E","display":"Excellent"}]}},{"url":"http://fhir.nhs.net/StructureDefinition/extension-cofe-language-ability-mode-1","valueCodeableConcept":{"coding":[{"system":"http://fhir.nhs.net/ValueSet/language-ability-mode-1","code":"ESP","display":"Expressed spoken"}]}}],"coding":[{"code":"en"}]},"preferred":true},{"language":{"extension":[{"url":"http://fhir.nhs.net/StructureDefinition/extension-cofe-language-ability-proficiency-1","valueCodeableConcept":{"coding":[{"system":" http://fhir.nhs.net/ValueSet/language-ability-proficiency-1","code":"F","display":"Fair"}]}},{"url":"http://fhir.nhs.net/StructureDefinition/extension-cofe-language-ability-mode-1","valueCodeableConcept":{"coding":[{"system":"http://fhir.nhs.net/ValueSet/language-ability-mode-1","code":"ESP","display":"Expressed spoken"}]}}],"coding":[{"code":"fr"}]},"preferred":false}],"careProvider":[{"reference":"Organisation/25e92b7d-c3e0-49fd-adb3-b92eaa229904"}]}},{"resource":{"resourceType":"Practitioner","id":"8ece9986-9af0-4882-b0cf-23a96ea7b509","meta":{"profile":["http://fhir.nhs.net/StructureDefinition/cofe-practitioner-1"]},"identifier":[{"system":"http://fhir.nhs.net/Id/sds-user-id","value":"G13579135"},{"system":"http://fhir.nhs.net/Id/sds-role-profile-id","value":"PT1357"}],"name":{"family":["Smith"],"given":["Matt"],"prefix":["Dr."]},"gender":"male","practitionerRole":[{"managingOrganization":{"reference":"Organization/1474506e-609d-412e-952b-4bc74d769038","display":"King's College Hospital"},"role":{"coding":[{"system":"http://fhir.nhs.net/ValueSet/sds-job-role-name-1","code":"R0050","display":"Consultant"}]}}],"communication":[{"coding":[{"system":"http://fhir.nhs.net/ValueSet/human-language-1","code":"en","display":"English"}]}]}},{"resource":{"resourceType":"Organization","id":"79600119-ebaf-4362-bb89-d473a33b1675","meta":{"profile":["http://fhir.nhs.net/StructureDefinition/cofe-organization-1"]},"identifier":[{"system":"http://fhir.nhs.net/Id/ods-organization-code","value":"B86022"}]}},{"resource":{"resourceType":"Practitioner","id":"924ad2f1-63dc-40cf-9f54-8da0fa3ba096","meta":{"profile":["http://fhir.nhs.net/StructureDefinition/cofe-practitioner-1"]},"identifier":[{"system":"http://fhir.nhs.net/Id/sds-user-id","value":"G13579135"},{"system":"http://fhir.nhs.net/Id/sds-role-profile-id","value":"NR2040"}],"name":{"family":["Shaw"],"given":["Mandy"]},"practitionerRole":[{"managingOrganization":{"reference":"Organization/1474506e-609d-412e-952b-4bc74d769038","display":"Coordinate My Care"},"role":{"coding":[{"system":"http://fhir.nhs.net/ValueSet/sds-job-role-name-1","code":"NR2040","display":"Palliative Care Physician"}]}}]}},{"resource":{"resourceType":"Organization","id":"1474506e-609d-412e-952b-4bc74d769038","meta":{"profile":["http://fhir.nhs.net/StructureDefinition/cofe-organization-ods-1"]},"identifier":[{"system":"http://fhir.nhs.net/Id/ods-organization-code","value":"RPY01"}],"name":"Coordinate My Care"}},{"resource":{"resourceType":"RelatedPerson","id":"1ae5a092-880b-4fe8-af9a-145124a1357d","meta":{"profile":["http://fhir.nhs.net/StructureDefinition/cofe-relatedperson-1"]},"identifier":[{"system":"2.16.840.1.113883.2.1.3.2.4.15","value":"184142008"}],"patient":{"reference":"Patient/31686b67-9f20-4644-9a54-193d2f91de57"},"relationship":{"coding":[{"system":"http://fhir.nhs.net/ValueSet/cda-person-relationship-type-1","code":"98","display":"Not Known"}]},"name":{"family":["Sudden"],"given":["Sam"],"prefix":["Mr"]},"telecom":[{"value":"01234567890"}],"address":[{"use":"home","line":["1 James Street"],"city":"Govford"}]}},{"resource":{"resourceType":"Practitioner","id":"e16e1d5a-17a9-40f4-a5b8-3d376a99fd38","meta":{"profile":["http://fhir.nhs.net/StructureDefinition/cofe-practitioner-1"]},"identifier":[{"system":"http://fhir.nhs.net/Id/sds-user-id","value":"G13579135"},{"system":"http://fhir.nhs.net/Id/sds-role-profile-id","value":"NR2040"}],"name":{"family":["SINGARAVELOU"],"given":["B"],"prefix":["Dr"]},"telecom":[{"system":"phone","value":"01234567890"},{"system":"phone","value":"02468024680"}],"address":[{"line":["36 DEWEY ROAD"],"postalCode":"RM10 8AR"}],"practitionerRole":[{"managingOrganization":{"reference":"Organization/4850bc87-8873-4f63-bccd-211173970d78","display":"Berwick Surgery"},"role":{"coding":[{"system":"http://fhir.nhs.net/ValueSet/sds-job-role-name-1","code":"NR0260","display":"General Medical Practitioner"}]}}]}},{"resource":{"resourceType":"Organization","id":"25e92b7d-c3e0-49fd-adb3-b92eaa229904","meta":{"profile":["http://fhir.nhs.net/StructureDefinition/cofe-provider-organization-1"]},"identifier":[{"system":"http://fhir.nhs.net/Id/ods-organization-code","value":"RPY01"}],"type":{"coding":[{"system":"http://fhir.nhs.net/ValueSet/cda-organization-provider-type-1","code":"001","display":"GP Practice"}]},"name":"Coordinate My Care","telecom":[{"system":"phone","value":"01234544890","use":"work"},{"system":"phone","value":"07810123654","use":"work"}],"address":[{"use":"work","line":["EASINGTON CCG"],"postalCode":"DH6 1AA"}]}}]}