<Bundle xmlns="http://hl7.org/fhir"><id value="320d7908-d1ae-48aa-b055-94561076b945" /><meta><profile value="http://fhir.nhs.net/StructureDefinition/cofe-document-bundle-1" /></meta><type value="document" /><entry><resource><Composition><id value="fa2a75a7-4257-422d-92a4-cf537f078e13" /><meta><profile value="http://fhir.nhs.net/StructureDefinition/cofe-composition-end-of-life-1" /></meta><text><status value="generated" /><div xmlns="http://www.w3.org/1999/xhtml">
  <p style="font-size:20px">
    <b>Patient Care Record - Mrs Diane Hembury</b>
  </p>
  <p style="color:red;font-size:20px">
    <b>NHS Number (Verified) - 6305786860</b>
  </p>
  <p style="font-size:16px">
    <b>Date of Birth:</b> 1977-05-01</p>
  <p style="font-size:20px">
    <b>Female</b>
  </p>
  <table width="100%" border="1" style="color:#000000; background-color:#dddddd">
    <tbody>
      <tr>
        <td>
          <p class="label"> Communication Language </p>
          <p>English (Excellent - Expressed spoken) <span class="label">Preferred</span></p>
          <p>French (Fair - Expressed spoken) </p>
        </td>
      </tr>
    </tbody>
  </table>
  <table width="100%" border="1" style="color:#000000; background-color:#dddddd">
    <tbody align="left">
      <tr>
        <td style="width:33%">
          <b>Official Address</b>
        </td>
        <td style="width:33%">
          <b>Temporary Address</b>
        </td>
        <td style="width:33%">
          <b>Work Address</b>
        </td>
      </tr>
      <tr>
        <td style="width:33%">120 Grove Street<br />Overtown<br />West Yorkshire<br />LS21 1PT</td>
        <td style="width:33%">15 Lucius Street<br />Foxtown<br />Bath<br />BA31 1BT</td>
        <td style="width:33%">Room 8<br />2nd floor<br />Flat 2<br />1 Lansdown Place<br />East Bath<br />BA1 5ET</td>
      </tr>
    </tbody>
  </table>
  <br />
  <table width="100%" border="1" cellpadding="5">
    <tbody>
      <tr>
        <th>
          <h3 style="text-align:left">GP Practice</h3>
          <table width="100%" border="0">
            <tbody align="left">
              <tr>
                <td style="width:50%">BIRCHDALE ROAD MEDICAL CENTRE</td>
              </tr>
            </tbody>
          </table>
          <table width="100%" border="1" style="color:#000000; background-color:#dddddd">
            <tbody align="left">
              <tr>
                <td style="width:50%">
                  <b>Address</b>
                </td>
                <td style="width:50%">
                  <b>Phone</b>
                </td>
              </tr>
              <tr>
                <td style="width:50%">NEWHAM CCG<br />E7 8AR</td>
                <td style="width:50%">0123 4567890<br />07890123456</td>
              </tr>
            </tbody>
          </table>
          <br />
          <table width="100%" border="1" style="color:#000000; background-color:#dddddd">
            <tbody align="left">
              <tr>
                <td style="width:50%">
                  <b>GP Practice Code</b>
                </td>
              </tr>
              <tr>
                <td style="width:50%">F84641</td>
              </tr>
            </tbody>
          </table>
          <br />
        </th>
      </tr>
    </tbody>
  </table>
  <br />
  <table width="100%" border="1" style="color:#000000; background-color:#dddddd">
    <tbody align="left">
      <tr>
        <td style="width:50%">
          <b>GP Practice Code</b>
        </td>
      </tr>
      <tr>
        <td style="width:50%">F84641</td>
      </tr>
    </tbody>
  </table>
  <br />
  <br />
  <table width="100%" border="1" style="color:#000000; background-color:#dddddd">
    <tr>
      <td>
        <p style="font-size:16px">
          <b>Document Created:</b> 03-Dec-2015, 08:39</p>
        <p style="font-size:16px">
          <b>Document Owner:</b>Coordinate My Care</p>
        <p style="font-size:16px">
          <b>Authored by:</b> Dr Mandy Shaw - Palliative Care Physician, Coordinate My Care on 02-Jun-2015, 09:05</p>
        <p style="font-size:16px">
          <b>Consent Status:</b>Consent given for electronic record sharing</p>
      </td>
    </tr>
  </table>
  <br />
  <br />
  <table width="100%" border="1" style="color:#000000; background-color:#dddddd">
    <tr>
      <td>
        <p style="font-size:16px">
          <b>Notified To:</b> Mr Sam Sudden - Not Known</p>
        <p style="font-size:16px">
          <b>Home Address:</b>
          <br />1 James Street<br />Govford<br />GV11 7RD</p>
        <p style="font-size:16px">
          <b>Home Phone:</b> 01234567890</p>
        <hr />
        <p style="font-size:16px">
          <b>Notified To:</b> Mrs Samantha Sudden - Not Known</p>
        <p style="font-size:16px">
          <b>Home Address:</b>
          <br />2 John Street<br />Govford<br />GV12 5RE</p>
        <p style="font-size:16px">
          <b>Home Phone:</b> 02468023456</p>
        <hr />
        <p style="font-size:16px">
          <b>Notified To:</b> Mrs Sarah Bloggs - Wife</p>
        <p style="font-size:16px">
          <b>Home Address:</b>
          <br />321 Brighton Rock<br />Gumford<br />East Sussex</p>
        <p style="font-size:16px">
          <b>Home Phone:</b> 01235680246</p>
        <hr />
        <p style="font-size:16px">
          <b>Notified To:</b> Mr John Bloggs - Son</p>
        <p style="font-size:16px">
          <b>Home Address:</b>
          <br />123 Brighton Pier<br />Gumford<br />East Sussex</p>
        <p style="font-size:16px">
          <b>Mobile Phone:</b> 09876543211</p>
        <hr />
        <p style="font-size:16px">
          <b>Notified To:</b> Mrs Sarah Bloggs - Not specified</p>
        <hr />
        <p style="font-size:16px">
          <b>Notified To:</b> Mr Peter Bloggs - Not specified</p>
        <hr />
        <p style="font-size:16px">
          <b>Notified To:</b> Mrs Joseph Balidon - Not specified</p>
        <hr />
        <p style="font-size:16px">
          <b>Notified To:</b> DR SINGARAVELOU B - General Practitioner</p>
        <p style="font-size:16px">
          <b>Notified Organization:</b> Berwick Surgery</p>
        <p style="font-size:16px">
          <b>Work Address:</b>
          <br />36 DEWEY ROAD<br />RM10 8AR</p>
        <p style="font-size:16px">
          <b>DSwitchboard/Office Phone:</b> 01234567890</p>
        <p style="font-size:16px">
          <b>Direct Phone:</b> 02468024680</p>
        <hr />
        <p style="font-size:16px">
          <b>Notified To:</b> Ms E Nurse - District nurse</p>
        <p style="font-size:16px">
          <b>Notified Organization:</b> Bromley Healthcare</p>
        <hr />
        <p style="font-size:16px">
          <b>Notified To:</b> Dr B Community</p>
        <p style="font-size:16px">
          <b>Notified Organization:</b> Brent Community Health</p>
        <hr />
        <p style="font-size:16px">
          <b>Notified To:</b> Mrs G Palliative</p>
        <p style="font-size:16px">
          <b>Notified Organization:</b> Ealing Community Team</p>
        <hr />
        <p style="font-size:16px">
          <b>Notified To:</b> Dr A Hospice</p>
        <p style="font-size:16px">
          <b>Notified Organization:</b> St Joseph's Hospice</p>
        <hr />
        <p style="font-size:16px">
          <b>Notified To:</b> Dr A Hospice</p>
        <p style="font-size:16px">
          <b>Notified Organization:</b> St Luke's Hospice</p>
        <hr />
        <p style="font-size:16px">
          <b>Notified To:</b> Dr F Consultant - Hospital consultant</p>
        <p style="font-size:16px">
          <b>Notified Organization:</b> Barnet and Chase Farm</p>
        <hr />
        <p style="font-size:16px">
          <b>Notified To:</b> Dr G Riley - Hospital consultant</p>
        <p style="font-size:16px">
          <b>Notified Organization:</b> Royal Marsden</p>
        <hr />
        <p style="font-size:16px">
          <b>Notified To:</b>Ms H Other</p>
        <p style="font-size:16px">
          <b>Notified Organization:</b> Care Team</p>
        <hr />
        <p style="font-size:16px">
          <b>Notified To:</b>GP Daytime (key contact)</p>
        <p style="font-size:16px">
          <b>Notified Organization:</b> Berwick Surgery</p>
        <hr />
        <p style="font-size:16px">
          <b>Notified Organization:</b> Berwick Surgery</p>
        <hr />
        <p style="font-size:16px">
          <b>Notified To:</b>Ms A Care-Contact - Care Assistant</p>
        <p style="font-size:16px">
          <b>Notified Organization:</b> Care Contact</p>
        <hr />
      </td>
    </tr>
  </table>
  <br />
  <br />
</div></text><extension url="http://fhir.nhs.net/StructureDefinition/extension-cofe-information-recipient-1"><valueUri value="http://fhir.nhs.net/StructureDefinition/extension-cofe-information-recipient-1" /></extension><extension url="http://fhir.nhs.net/StructureDefinition/extension-cofe-data-enterer-1"><valueUri value="http://fhir.nhs.net/StructureDefinition/extension-cofe-data-enterer-1" /></extension><extension url="http://fhir.nhs.net/StructureDefinition/extension-cofe-informant-1"><valueUri value="http://fhir.nhs.net/StructureDefinition/extension-cofe-informant-1" /></extension><extension url="http://fhir.nhs.net/StructureDefinition/extension-participant-1"><valueReference><reference value="Practitioner/e16e1d5a-17a9-40f4-a5b8-3d376a99fd38" /></valueReference></extension><extension url="http://fhir.nhs.net/StructureDefinition/extension-cofe-performer-1"><valueUri value="http://fhir.nhs.net/StructureDefinition/extension-cofe-performer-1" /></extension><extension url="http://fhir.nhs.net/StructureDefinition/extension-cofe-authorization-1"><valueUri value="http://fhir.nhs.net/StructureDefinition/extension-cofe-authorization-1" /></extension><date value="2015-07-11T10:11:15+00:00" /><type><coding><system value="http://fhir.nhs.net/ValueSet/correspondence-document-type-1" /><code value="861421000000109" /><display value="End of Life Care Coordination Summary" /></coding><text value="End of Life Care Coordination Summary" /></type><class><coding><system value="http://hl7.org/fhir/ValueSet/doc-classcodes" /><code value="700232004" /><display value="general medical service" /></coding><text value="general medical service" /></class><title value="End of Life Care Coordination Summary" /><status value="final" /><confidentiality value="V" /><subject><reference value="Patient/31686b67-9f20-4644-9a54-193d2f91de57" /><display value="Mrs Diane Hembury" /></subject><author><reference value="Practitioner924ad2f1-63dc-40cf-9f54-8da0fa3ba096" /><display value="Dr Mandy Shaw" /></author><custodian><reference value="Organization/1474506e-609d-412e-952b-4bc74d769038" /><display value="Coordinate My Care" /></custodian><section><title value="Patient Details" /><code><coding><system value="http://fhir.nhs.net/ValueSet/cofe-record-section-1" /><code value="PAT" /><display value="Patient Details" /></coding></code></section><section><title value="Individual (Special) requirements" /><code><coding><system value="http://snomed.info/sct" /><code value="886741000000100" /><display value="Individual requirements" /></coding></code><text><status value="generated" /><div xmlns="http://www.w3.org/1999/xhtml">
  <h2>Individual (Special) requirements</h2>
  <table style="color:#000000; background-color:#dddddd" width="100%" border="1">
    <tbody>
      <tr>
        <th>Communication preferences</th>
      </tr>
      <tr>
        <td>French spoken, English preferred</td>
      </tr>
    </tbody>
  </table>
  <br />
  <table style="color:#000000; background-color:#dddddd" width="100%" border="1">
    <tbody>
      <tr>
        <th>Disabilities</th>
      </tr>
      <tr>
        <td>1.Hearing loss</td>
      </tr>
      <tr>
        <td>2.Visual Impairment</td>
      </tr>
      <tr>
        <td>3.Difficulty with Verbal communication</td>
      </tr>
      <tr>
        <td>4.Mental Impairment</td>
      </tr>
      <tr>
        <td>4A.Physical disability</td>
      </tr>
      <tr>
        <td>5.Other disability</td>
      </tr>
      <tr>
        <td>6.Unable to summon help in an emergency</td>
      </tr>
      <tr>
        <td>7.Lacks safety awareness</td>
      </tr>
      <tr>
        <td>8.No known disability</td>
      </tr>
      <tr>
        <td>9.Person reports no current disability</td>
      </tr>
    </tbody>
  </table>
  <br />
  <table style="color:#000000; background-color:#dddddd" width="100%" border="1">
    <tbody>
      <tr>
        <th>Disability details</th>
      </tr>
      <tr>
        <td> No further information is available</td>
      </tr>
    </tbody>
  </table>
  <br />
</div></text><entry><reference value="Condition/1c7908dd-2c04-47ca-97c9-9d18082fec80" /><display value="cofe-disability-condition-1-example-1" /></entry></section><section><title value="Diagnosis" /><code><coding><system value="http://snomed.info/sct" /><code value="887161000000102" /><display value="Diagnoses" /></coding></code><text><status value="generated" /><div xmlns="http://www.w3.org/1999/xhtml">
  <h2>Diagnoses</h2>
  <table width="100%" border="1" style="color:#000000; background-color:#dddddd">
    <tbody align="left">
      <tr>
        <th align="left">Classified diagnosis</th>
        <td>Cancer Diagnosis – Independent Multiple Sites</td>
      </tr>
      <tr>
        <th align="left">Diagnosis category</th>
        <td>1.Cancer</td>
      </tr>
    </tbody>
  </table>
  <br />
  <table style="color:#000000; background-color:#dddddd" width="100%" border="1">
    <tbody>
      <tr>
        <th align="left">Diagnosis</th>
        <th align="left">Main?</th>
        <th align="left">Condition Date</th>
        <th align="left">End Date</th>
        <th align="left">Details</th>
        <th align="left">Long-term?</th>
        <th align="left">Life-threatening?</th>
      </tr>
      <tr>
        <td>Cancer Diagnosis – Independent Multiple Sites</td>
        <td>Yes</td>
        <td />
        <td />
        <td>cancer diagnosis details</td>
        <td>Yes</td>
        <td>No</td>
      </tr>
      <tr>
        <td>Chronic Obstructive Pulmonary Disease (COPD)</td>
        <td />
        <td>01 Feb 2015</td>
        <td>02 Feb 2015</td>
        <td>Diagnosis 2</td>
        <td>Yes</td>
        <td>Yes</td>
      </tr>
    </tbody>
  </table>
  <br />
  <table style="color:#000000; background-color:#dddddd" width="100%" border="1">
    <tbody>
      <tr>
        <th align="left" colspan="7">Diagnosis awareness</th>
      </tr>
      <tr>
        <td style="width:50%">Is the Patient Aware of Diagnosis?</td>
        <td style="width:50%">patient aware of diagnosis</td>
      </tr>
      <tr>
        <td>Is the Carer Aware of Diagnosis?</td>
        <td>carer aware of diagnosis</td>
      </tr>
    </tbody>
  </table>
  <br />
</div></text><entry><reference value="Condition/e3d96a2e-abbe-4e78-93dd-e5870fc4f796" /><display value="COFE-Diagnosis-Condition-1- Example-1" /></entry><entry><reference value="Condition/98d29b5a-da2b-4f48-99b8-53924642c9fd" /><display value="COFE-Diagnosis-Condition-1-Example-2" /></entry></section><section><title value="Relevant past medical, surgical and mental health history" /><code><coding><system value="http://snomed.info/sct" /><code value="933271000000106" /><display value="Relevant Past Medical Surgical And Mental Health History" /></coding></code><text><status value="generated" /><div xmlns="http://www.w3.org/1999/xhtml">
  <h2>Significant Past Medical History</h2>
  <table style="color:#000000; background-color:#dddddd" width="100%" border="1">
    <tbody>
      <tr>
        <th>Significant problems and issues</th>
      </tr>
      <tr>
        <td>Anterior chest pain</td>
      </tr>
    </tbody>
  </table>
  <br />
</div></text><entry><reference value="List/1dg994ec-ce2b-462e-9488-c3c977fe76cd" /><display value="cofe-spmh-list-1" /></entry></section><section><title value="Medications and medical devices" /><code><coding><system value="http://snomed.info/sct" /><code value="933361000000108" /><display value="Medications and medical devices" /></coding></code><text><status value="generated" /><div xmlns="http://www.w3.org/1999/xhtml">
  <h2>Medications and medical devices</h2>
  <table style="color:#000000; background-color:#dddddd" width="100%" border="1">
    <tbody>
      <tr>
        <td>Has patient been prescribed strong opioids?</td>
        <td>Y</td>
      </tr>
    </tbody>
  </table>
  <br />
  <table style="color:#000000; background-color:#dddddd" width="100%" border="1">
    <caption>Current Medications</caption>
    <tbody>
      <tr>
        <th>Drug</th>
        <th>Status</th>
        <th>Start Date</th>
        <th>End Date</th>
      </tr>
      <tr>
        <td>Generic name: Paroxetine, Brand name: brand1, Type of drug: Antidepressant,
                                        Dose: 1mg, Route: Nasogastric, Frequency: daily
                                    </td>
        <td>Current</td>
        <td>12-Feb-2015</td>
        <td>11-Feb-2015</td>
      </tr>
      <tr>
        <td>Generic name: Glycerin suppository, Brand name: brand2, Type of drug: Rectal
                                        Laxative, Dose: 2mg, Route: Rectal, Frequency: 4 hours
                                    </td>
        <td>Current</td>
        <td>12-Feb-2015</td>
        <td>26-Feb-2015</td>
      </tr>
    </tbody>
  </table>
  <br />
  <table style="color:#000000; background-color:#dddddd" width="100%" border="1">
    <caption>Just in Case Medication</caption>
    <tbody>
      <tr>
        <th>Drug</th>
        <th>Status</th>
        <th>Start Date</th>
        <th>End Date</th>
      </tr>
      <tr>
        <td>Generic name: Midazolam, Brand name: brand3, Type of drug: IV/IM
                                        Anxiolytic/Sedative, Dose: 4mg, Route: Intramuscular, Frequency: 3
                                    </td>
        <td>Just in Case</td>
        <td>12-Feb-2015</td>
        <td>03-Feb-2015</td>
      </tr>
      <tr>
        <td>Generic name: Other (Other: other drug), Brand name: brand4, Type of drug:
                                        Rectal Anticonvulsant, Dose: 8mg, Route: Rectal, Frequency: 20
                                    </td>
        <td>Just in Case</td>
        <td>12-Feb-2015</td>
        <td>11-Feb-2015</td>
      </tr>
    </tbody>
  </table>
  <br />
</div></text><entry><reference value="MedicationAdministration/6be34aca-47b9-4812-9c31-287d10c3ad11" /><display value="COFE-MedsAndDevices-MedicationAdministration-1-Example-1" /></entry></section><section><title value="Allergies and adverse reactions" /><code><coding><system value="http://snomed.info/sct" /><code value="886921000000105" /><display value="Allergies and adverse reaction" /></coding></code><text><status value="generated" /><div xmlns="http://www.w3.org/1999/xhtml">
  <h2>Allergies and adverse reactions</h2>
  <table style="color:#000000; background-color:#dddddd" width="100%" border="1">
    <tbody>
      <tr>
        <th style="font-size:20px" align="left">Allergies and adverse reactions</th>
      </tr>
      <tr>
        <td>Sticking plaster, Penicillin</td>
      </tr>
    </tbody>
  </table>
  <br />
</div></text><entry><reference value="AllergyIntolerence/97f0402c-ecf2-4d41-aa56-e6028f097081" /><display value="COFE-AllergicOrAdverseReactions-AllergyIntolerence-Example-1" /></entry><entry><reference value="AllergyIntolerence/caccc801-17a9-4c65-948a-defa33f4ae90" /><display value="COFE-AllergicOrAdverseReactions-AllergyIntolerence-Example-2" /></entry></section><section><title value="Safety Alerts" /><code><coding><system value="http://snomed.info/sct" /><code value="886931000000107" /><display value="Safety alerts" /></coding></code><text><status value="generated" /><div xmlns="http://www.w3.org/1999/xhtml">
  <h2>Safety Alerts</h2>
  <table style="color:#000000; background-color:#dddddd" width="100%" border="1">
    <tbody>
      <tr>
        <th style="font-size:20px" align="left">Risks to others</th>
      </tr>
      <tr>
        <td>Dangerous Dog</td>
      </tr>
    </tbody>
  </table>
  <br />
</div></text><entry><reference value="Flag/1df994ec-ce2b-462e-9487-c3c977fe76cd" /><display value="COFE-RiskFlag-1-Example-2" /></entry></section><section><title value="Legal Information" /><code><coding><system value="http://snomed.info/sct" /><code value="886961000000102" /><display value="Legal information " /></coding></code><text><status value="generated" /><div xmlns="http://www.w3.org/1999/xhtml">
  <h2>Legal Information</h2>
  <table style="color:#000000; background-color:#dddddd" width="100%" border="1">
    <tbody>
      <tr>
        <th style="font-size:20px" colspan="2" align="left">Legal information</th>
      </tr>
      <tr>
        <td>Lasting or enduring power of attorney or similar</td>
        <td>1.Patient consents</td>
      </tr>
      <tr>
        <td>Mental Health Act - Legal Status</td>
        <td>other mental health act</td>
      </tr>
      <tr>
        <td>Mental capacity assessment</td>
        <td>other mental capacity</td>
      </tr>
    </tbody>
  </table>
  <br />
</div></text><entry><reference value="Flag/2f761868-7bf9-41f8-ac98-9854fe2163d1" /><display value="COFE-LastingPowerOfAttorney-1-Example-3" /></entry></section><section><title value="Social context" /><code><coding><system value="http://snomed.info/sct" /><code value="887051000000101" /><display value="Social context" /></coding></code><text><status value="generated" /><div xmlns="http://www.w3.org/1999/xhtml">
  <h2>Social Context</h2>
  <table style="color:#000000; background-color:#dddddd" width="100%" border="1">
    <tbody>
      <tr>
        <th>Accommodation</th>
      </tr>
      <tr>
        <td>Second Floor Lives Alone</td>
      </tr>
    </tbody>
  </table>
  <br />
</div></text><entry><reference value="QuestionnaireResponse/9c7eb664-d257-4250-aee2-20ad202919e8" /><display value="COFE-Accomodation-QuestionnaireResponse-1-Example-1" /></entry></section><section><title value="Person and carer concerns, expectations and wishes" /><code><coding><system value="http://fhir.nhs.net/ValueSet/fhir-observation-1" /><code value="887131000000107" /><display value="Patient and carer concerns" /></coding></code><text><status value="generated" /><div xmlns="http://www.w3.org/1999/xhtml">
  <h2>End of life preferences</h2>
  <table style="color:black; background-color:#dddddd" width="100%" border="1">
    <tbody>
      <tr>
        <th colspan="2">End of life preferences</th>
      </tr>
      <tr>
        <td>Patient’s preferred place of care</td>
        <td>1.Home</td>
      </tr>
      <tr>
        <td>Patient’s preferred place of death</td>
        <td>2.Care Home</td>
      </tr>
    </tbody>
  </table>
  <br />
</div></text><entry><reference value="QuestionnaireResponse/aa161ef6-63de-4839-a37b-742e3dfeb7fe" /><display value="COFE-PersonalCarePreference-QuestionnaireResponse-1-Example-1" /></entry></section><section><title value="Crisis Care Plan" /><code><coding><system value="http://snomed.info/sct" /><code value="325681000000102" /><display value="Crisis Care Plan" /></coding></code><text><status value="generated" /><div xmlns="http://www.w3.org/1999/xhtml">
  <h2>Crisis Care Plan</h2>
  <table width="100%" border="1" style="color:#000000; background-color:#dddddd">
    <tbody>
      <tr>
        <th style="font-size:20px" align="left">Crisis Care Observations</th>
      </tr>
      <tr>
        <td>Crisis Care Observation</td>
        <td>In Case of Pain Crises</td>
      </tr>
      <tr>
        <td>Crisis Care Observation</td>
        <td>In Case of Breathlessness</td>
      </tr>
      <tr>
        <td>Crisis Care Observation</td>
        <td>In Case of Nausea/Vomiting</td>
      </tr>
    </tbody>
  </table>
  <br />
  <table width="100%" border="1" style="color:#000000; background-color:#dddddd">
    <tbody>
      <tr>
        <th style="font-size:20px" align="left" colspan="2">EOL Care Plan</th>
      </tr>
      <tr>
        <td>EOL Planned Review Date</td>
        <td>20160502</td>
      </tr>
      <tr>
        <td>Plan Agreed with Patient Carer</td>
        <td>Full, active treatment plan, including in acute hospital setting</td>
      </tr>
    </tbody>
  </table>
  <br />
  <table width="100%" border="1" style="color:#000000; background-color:#dddddd">
    <tbody>
      <tr>
        <th style="font-size:20px" align="left" colspan="2">DNACPR</th>
      </tr>
      <tr>
        <td>Has a discussion regarding CPR taken place with the patient?</td>
        <td>1.Yes</td>
      </tr>
      <tr>
        <td>Should CPR commence?</td>
        <td>2.No</td>
      </tr>
      <tr>
        <td>Date CPR decision made</td>
        <td>11-Feb-2015</td>
      </tr>
      <tr>
        <td>EOL Do Not Attempt Cardio-pulmonary Resuscitation Review Date</td>
        <td>02-Jun-2016</td>
      </tr>
      <tr>
        <td>EOL Resuscitation Status</td>
        <td>Not for cardiopulmonary resuscitation</td>
      </tr>
      <tr>
        <td>EOL Do Not Attempt Cardio-pulmonary Resuscitation</td>
        <td>Not for attempted cardiopulmonary resuscitation</td>
      </tr>
      <tr>
        <td>EOL Do Not Attempt Cardio-pulmonary Resuscitation Docs Location</td>
        <td>DNACPR document in top desk drawer in the patient's living room</td>
      </tr>
      <tr>
        <td>Discussion about do not attempt cardiopulmonary resuscitation clinical decision</td>
        <td>Family member informed of cardiopulmonary resuscitation clinical decision</td>
      </tr>
    </tbody>
  </table>
  <br />
  <table width="100%" border="1" style="color:#000000; background-color:#dddddd">
    <tbody>
      <tr>
        <th style="font-size:20px" align="left" colspan="2">Issue of palliative care anticipatory medication box</th>
      </tr>
      <tr>
        <td>EOL Anticipatory Medicine Box Location</td>
        <td>On shelf in front room</td>
      </tr>
    </tbody>
  </table>
  <br />
</div></text><entry><reference value="Observation/9322a1b5-5264-47ee-a0b6-e30fafa7f1ac" /><display value="COFE-CrisisCarePlan-Observation-1-Example-1" /></entry><entry><reference value="CarePlan/fea7bf33-3bc1-4eb7-856c-badb3a92135a" /><display value="COFE-EndofLifeCarePlan-CarePlan-1-Example-1" /></entry><entry><reference value="QuestionnaireResponse/9c7eb664-d257-4250-aee2-20ad202919e8" /><display value="COFE-DNACRPDecision-Questionnaire-1-Example-1" /></entry><entry><reference value="QuestionnaireResponse/046fcf2d-80b0-4912-a50c-dd1293dbbed8" /><display value="COFE-IssueofAnticipatoryMeds-1-example-1" /></entry></section><section><title value="End of life care" /><code><coding><system value="http://fhir.nhs.net/ValueSet/fhir-observation-1" /><code value="DEFINECODE" /><display value="End of life care" /></coding></code><text><status value="generated" /><div xmlns="http://www.w3.org/1999/xhtml">
  <h2>End of life care</h2>
  <table style="color:black; background-color:#dddddd" width="100%" border="1">
    <tbody>
      <tr>
        <th style="font-size:20px" align="left">Care plan review date</th>
      </tr>
      <tr>
        <td>04/07/2015</td>
      </tr>
    </tbody>
  </table>
  <br />
</div></text><entry><reference value="CarePlan/fea7bf33-3bc1-4eb7-851c-badb3a92135a" /><display value="COFE-EndofLifeCarePlan-CarePlan-1-Example-2.xml" /></entry></section></Composition></resource></entry><entry><resource><Condition><id value="e3d96a2e-abbe-4e78-93dd-e5870fc4f796" /><meta><profile value="http://fhir.nhs.net/StructureDefinition/cofe-diagnosis-condition-1" /></meta><extension url="http://fhir.nhs.net/StructureDefinition/extension-cofe-diagnosisawareness-1"><valueCodeableConcept><coding><system value="http://snomed.info/sct" /><code value="473302008" /><display value="Aware of diagnosis" /></coding></valueCodeableConcept></extension><identifier><value value="16850E54-63F1-4983-A6ED-233F99C390F9" /></identifier><patient><reference value="Patient/31686b67-9f20-4644-9a54-193d2f91de57" /><display value="Diane Hembury" /></patient><asserter><reference value="Practitioner/f7737bf5-cfe7-491c-af3a-6f7177d5aee1" /><display value="Dr Tom Wood" /></asserter><code><coding><system value="http://snomed.info/sct" /><code value="405843009:106229004=8319008" /><display value="405843009 |Widespread metastatic malignant neoplastic disease|:106229004 |Qualifier for type of diagnosis| = 8319008 |Principal diagnosis|" /></coding></code><category><coding><system value="http://snomed.info/sct" /><code value="439401001" /><display value="Diagnosis" /></coding></category><verificationStatus value="confirmed" /><onsetPeriod><start value="2016-01-02T09:05:00+00:00" /></onsetPeriod></Condition></resource></entry><entry><resource><Condition><id value="98d29b5a-da2b-4f48-99b8-53924642c9fd" /><meta><profile value="http://fhir.nhs.net/StructureDefinition/cofe-diagnosis-condition-1" /></meta><extension url="http://fhir.nhs.net/StructureDefinition/extension-cofe-diagnosisawareness-1"><valueCodeableConcept><coding><system value="http://snomed.info/sct" /><code value="473302008" /><display value="Aware of diagnosis" /></coding></valueCodeableConcept></extension><identifier><value value="16850E54-63F1-4983-A6ED-233F99C390F9" /></identifier><patient><reference value="Patient/31686b67-9f20-4644-9a54-193d2f91de57" /><display value="Diane Hembury" /></patient><asserter><reference value="Practitioner/8ece9986-9af0-4882-b0cf-23a96ea7b509" /><display value="Dr Matt Smith" /></asserter><code><coding><system value="http://snomed.info/sct" /><code value="13645005 :106229004=85097005" /><display value="13645005 | Chronic obstructive lung disease | : 106229004 | Qualifier for type of diagnosis | = 85097005 | Secondary diagnosis |" /></coding></code><category><coding><system value="http://snomed.info/sct" /><code value="439401001" /><display value="Diagnosis" /></coding></category><verificationStatus value="confirmed" /><onsetPeriod><start value="2016-01-02T09:06:00+00:00" /></onsetPeriod></Condition></resource></entry><entry><resource><List><id value="1dg994ec-ce2b-462e-9488-c3c977fe76cd" /><meta><profile value="http://fhir.nhs.net/StructureDefinition/cofe-spmh-list-1" /></meta><identifier><system value="a9fcea7c-fcdf-4d17-a5e0-f26dda030b59" /><value value="23974652" /></identifier><code><coding><extension url="http://hl7.org/fhir/ValueSet/list-example-codes" /><code value="417662000" /><display value="History of clinical finding in subject (situation)" /></coding><text value="SPMH - Significant Past Medical History" /></code><subject><reference value="Patient/31686b67-9f20-4644-9a54-193d2f91de57" /><display value="Mrs Diane Hembury" /></subject><status value="current" /><date value="2012-11-25T22:17:00+11:00" /><mode value="changes" /><entry><date value="2016-03-02T09:05:00+00:00" /><item><reference value="Condition/e3d96a2e-abbe-4e78-93dd-e5870fc4f790" /><display value="COFE-Diagnosis-Condition-1-Example-3" /></item></entry></List></resource></entry><entry><resource><Condition><id value="e3d96a2e-abbe-4e78-93dd-e5870fc4f790" /><meta><profile value="http://fhir.nhs.net/StructureDefinition/cofe-diagnosis-condition-1" /></meta><extension url="http://fhir.nhs.net/StructureDefinition/extension-cofe-diagnosisawareness-1"><valueCodeableConcept><coding><system value="http://snomed.info/sct" /><code value="473302008" /><display value="Aware of diagnosis" /></coding></valueCodeableConcept></extension><identifier><value value="16850E54-63F1-4983-A6ED-233F99C390F9" /></identifier><patient><reference value="Patient/31686b67-9f20-4644-9a54-193d2f91de57" /><display value="Diane Hembury" /></patient><code><coding><system value="http://snomed.info/sct" /><code value="161973001:106229004=8319008" /><display value="161973001 |Anterior chest wall pain|:106229004 |Qualifier for type of diagnosis| = 8319008 |Principal diagnosis|" /></coding></code><verificationStatus value="confirmed" /></Condition></resource></entry><entry><resource><MedicationAdministration><id value="6be34aca-47b9-4812-9c31-287d10c3ad11" /><meta><profile value="http://fhir.nhs.net/StructureDefinition/cofe-medsanddevices-medicationadministration-1" /></meta><identifier><value value="333D02F6-3335-3335-3334-333149F1A0F2" /></identifier><status value="completed" /><patient><reference value="Patient/31686b67-9f20-4644-9a54-193d2f91de57" /><display value="Mrs Diane Hembury" /></patient><practitioner><reference value="Practitioner924ad2f1-63dc-40cf-9f54-8da0fa3ba096" /><display value="Dr Mandy Shaw" /></practitioner><effectiveTimePeriod><start value="2015-02-12" /><end value="2015-02-26" /></effectiveTimePeriod><medicationCodeableConcept><coding><system value="http://snomed.info/sct" /><code value="TBA" /><display value="Paroxetine 10mg/5ml oral suspension" /></coding></medicationCodeableConcept><note value="Patient must be prescribed Brand1" /><dosage><text value="10mg to be taken daily. Nasogastric route" /><route><coding><system value="http://fhir.nhs.net/ValueSet/nhs-e-prescribing-route-of-administration-1" /><code value="127492001" /><display value="Nasogastric route" /></coding></route><quantity><value value="10" /><unit value="mg" /><system value="http://unitsofmeasure.org" /><code value="mg" /></quantity><rateRatio><numerator><value value="10" /><unit value="mg" /><system value="http://unitsofmeasure.org" /><code value="mg" /></numerator><denominator><value value="24" /><unit value="hours" /><system value="http://snomed.info/sct" /><code value="258702006" /></denominator></rateRatio></dosage></MedicationAdministration></resource></entry><entry><resource><AllergyIntolerance><id value="97f0402c-ecf2-4d41-aa56-e6028f097081" /><meta><profile value="http://fhir.nhs.net/StructureDefinition/cofe-allergicoradversereactions-allergyintolerence-1" /></meta><identifier><value value="c01c706a-ae0b-4910-b751-fc3f3ec5197c" /></identifier><onset value="2013-02-01" /><patient><reference value="Patient/31686b67-9f20-4644-9a54-193d2f91de57" /><display value="Diane Hembury" /></patient><substance><coding><system value="http://snomed.info/sct" /><code value="14423008" /><display value="Sticking plaster" /></coding></substance><status value="confirmed" /><reaction><substance><coding><system value="http://snomed.info/sct" /><code value="14423008" /><display value="Sticking plaster" /></coding></substance><manifestation><coding><system value="http://snomed.info/sct" /><code value="291000119100" /><display value="Contact dermatitis caused by chemical" /></coding></manifestation></reaction></AllergyIntolerance></resource></entry><entry><resource><AllergyIntolerance><id value="caccc801-17a9-4c65-948a-defa33f4ae90" /><meta><profile value="http://fhir.nhs.net/StructureDefinition/cofe-allergicoradversereactions-allergyintolerence-1" /></meta><identifier><value value="8086b754-3399-4e3e-ae83-8ceff4bbdc76" /></identifier><onset value="2013-02-01" /><patient><reference value="Patient/31686b67-9f20-4644-9a54-193d2f91de57" /><display value="Diane Hembury" /></patient><substance><coding><system value="http://snomed.info/sct" /><code value="373270004" /><display value="Penicillin" /></coding></substance><status value="confirmed" /><reaction><substance><coding><system value="http://snomed.info/sct" /><code value="373270004" /><display value="Penicillin" /></coding></substance><manifestation><coding><system value="http://snomed.info/sct" /><code value="292954005" /><display value="Penicillin adverse reaction" /></coding></manifestation></reaction></AllergyIntolerance></resource></entry><entry><resource><Flag><id value="1df994ec-ce2b-462e-9487-c3c977fe76cd" /><meta><profile value="http://fhir.nhs.net/StructureDefinition/cofe-risk-flag-1" /></meta><identifier><value value="43F99D87-430F-4C34-90A9-67B6F1E2D881" /></identifier><category><coding><system value="http://fhir.nhs.net/ValueSet/flag-category-1" /><code value="RTO" /><display value="Risk to Others" /></coding></category><status value="active" /><subject><reference value="Patient/31686b67-9f20-4644-9a54-193d2f91de57" /><display value="Diane Hembury" /></subject><code><text value="Dangerous Dog" /></code></Flag></resource></entry><entry><resource><Observation><id value="2f761868-7bf9-41f8-ac98-9854fe2163d1" /><meta><profile value="http://fhir.nhs.net/StructureDefinition/cofe-lastingpowerofattorney-observation-1" /></meta><identifier id="4d70d576-05d4-4beb-b691-f25cfbce1f15" /><status value="final" /><category><coding><system value="http://fhir.nhs.net/ValueSet/eol-cda-observation-type-1" /><code value="EOLLPA" /><display value="EOL Authority to Lasting Power of Attorney" /></coding></category><code><coding><system value="http://snomed.info/sct" /><code value="816381000000105" /><display value="Has appointed person with personal welfare lasting power of attorney with authority for life sustaining decisions (Mental Capacity Act 2005) (finding)" /></coding></code><performer><reference value="RelatedPerson/b871ba7b-d6bb-46bf-8f5b-12994f51fd65" /></performer></Observation></resource></entry><entry><resource><QuestionnaireResponse><id value="9c7eb664-d257-4250-aee2-20ad202919e8" /><meta><profile value="http://fhir.nhs.net/StructureDefinition/cofe-accommodation-questionnaireresponse-1" /></meta><identifier><value value="fd60ffd5-3e41-4b68-aa62-37f5407d8c04" /></identifier><status value="completed" /><subject><reference value="Patient/31686b67-9f20-4644-9a54-193d2f91de57" /><display value="Mrs Diane Hembury" /></subject><authored value="2016-03-02T09:05:00+01:00" /><group><question><linkId value="ACCDET" /><text value="Which floor is the patient located on?" /><answer><valueString value="Second Floor" /></answer></question><question><linkId value="ACCDET" /><text value="Does the patient live alone?" /><answer><valueString value="Lives alone" /></answer></question></group></QuestionnaireResponse></resource></entry><entry><resource><Observation><id value="9322a1b5-5264-47ee-a0b6-e30fafa7f1ac" /><meta><profile value="http://fhir.nhs.net/StructureDefinition/cofe-crisiscareplan-observation-1" /></meta><status value="final" /><code><coding><system value="http://fhir.nhs.net/ValueSet/crisiscareplan-observation-1" /><code value="CCO" /><display value="Crisis Care Observation" /></coding></code><component><code><coding><system value="http://fhir.nhs.net/ValueSet/crisiscareplan-observation-1" /><code value="ICOPC" /><display value="In Case of Pain Crises" /></coding></code></component><component><code><coding><system value="http://fhir.nhs.net/ValueSet/crisiscareplan-observation-1" /><code value="ICOB" /><display value="In Case of Breathlessness" /></coding></code></component><component><code><coding><system value="http://fhir.nhs.net/ValueSet/crisiscareplan-observation-1" /><code value="ICONV" /><display value="In Case of Nausea/Vomiting" /></coding></code></component></Observation></resource></entry><entry><resource><CarePlan><id value="fea7bf33-3bc1-4eb7-856c-badb3a92135a" /><meta><profile value="http://fhir.nhs.net/StructureDefinition/cofe-endoflifecareplan-careplan-1" /></meta><extension url="http://fhir.nhs.net/StructureDefinition/extension-cofe-planned-review-date-1"><valueDate value="2016-05-02" /></extension><extension url="http://fhir.nhs.net/StructureDefinition/extension-cofe-plannedagreementtext-1"><valueString value="Full, active treatment plan, including in acute hospital setting" /></extension><identifier><value value="11a98de8-4c44-424c-bb6d-0049c4d2b777" /></identifier><subject><reference value="Patient/31686b67-9f20-4644-9a54-193d2f91de57" /><display value="Diane Hembury" /></subject><status value="active" /><category><coding><system value="http://fhir.nhs.net/ValueSet/eol-cda-observation-type-1" /><code value="EOLCP" /><display value="EOL Care Plan" /></coding></category></CarePlan></resource></entry><entry><resource><QuestionnaireResponse><id value="9c7eb664-d257-4250-aee2-20ad202919e8" /><meta><profile value="http://fhir.nhs.net/StructureDefinition/cofe-dnacprdecision-questionnaireresponse-1" /></meta><identifier><value value="fd60ffd5-3e41-4b68-aa62-37f5407d8c04" /></identifier><status value="completed" /><subject><reference value="Patient/31686b67-9f20-4644-9a54-193d2f91de57" /><display value="Diane Hembury" /></subject><author><reference value="Practitioner/78d7ac3f-17a4-419a-964f-84148c9eef94" /><display value="Dr. Mandy Shaw" /></author><group><question><linkId value="EOLDCR" /><text value="Should cardio-pulmonary resuscitation commence?" /><answer><valueCoding><system value="http://fhir.nhs.net/ValueSet/cpr-decision-response-1" /><code value="450476008" /><display value="Not for cardiopulmonary resuscitation" /></valueCoding></answer></question><question><linkId value="EOLRST" /><text value="Has the DNA CPR decision been discussed with the patient?" /><answer><valueCoding><system value="http://fhir.nhs.net/ValueSet/cpr-decision-discussion-response-1" /><code value="921551000000101" /><display value="Discussion about do not attempt cardiopulmonary resuscitation clinical decision" /></valueCoding></answer></question><question><linkId value="EOLDCR" /><text value="What date was the DNA CPR decision made?" /><answer><valueDate value="2015-02-11" /></answer></question><question><linkId value="EOLDCR" /><text value="Has the DNA CPR decision been discussed with the patient's family/carer?" /><answer><valueCoding><system value="http://fhir.nhs.net/ValueSet/cpr-decision-discussion-family-carer-response-1" /><code value="975291000000108" /><display value="Family member informed of cardiopulmonary resuscitation clinical decision" /></valueCoding></answer></question><question><linkId value="EOLDCR" /><text value="Who made the DNA CPR decision?" /><answer><valueString value="Diane Hembury" /></answer></question><question><linkId value="EOLDRD" /><text value="What date should the DNA CPR decision be reviewed?" /><answer><valueDate value="2016-06-02" /></answer></question></group></QuestionnaireResponse></resource></entry><entry><resource><Procedure><id value="046fcf2d-80b0-4912-a50c-dd1293dbbed8" /><meta><profile value="http://fhir.nhs.net/StructureDefinition/cofe-issueofanticipatorymeds-procedure-1" /></meta><subject><reference value="http://fhir.nhs.net/StructureDefinition/cofe-patient-1" /></subject><status value="completed" /><code><coding><system value="http://fhir.nhs.net/ValueSet/issue-of-anticipatory-meds-1" /><code value="76201000000102" /><display value="Issue of palliative care anticipatory medication box (procedure)" /></coding></code><performer><actor><reference value="http://fhir.nhs.net/StructureDefinition/cofe-practitioner-1" /></actor></performer></Procedure></resource></entry><entry><resource><QuestionnaireResponse><id value="aa161ef6-63de-4839-a37b-742e3dfeb7fe" /><meta><profile value="http://fhir.nhs.net/StructureDefinition/cofe-personalcarepreference-questionnaireresponse-1" /></meta><identifier><value value="6add94bb-39c1-4140-b328-f31fedff28a4" /></identifier><status value="completed" /><subject><reference value="Patient/31686b67-9f20-4644-9a54-193d2f91de57" /><display value="Diane Hembury" /></subject><group><question><linkId value="EOLPPC" /><text value="Where has the individual identified as their preferred place to receive care?" /><answer><valueCoding><system value="http://fhir.nhs.net/ValueSet/preferred-place-of-care-snct-1" /><code value=" 505401000000102" /><display value="Preferred place of care - home" /></valueCoding></answer></question><question><linkId value="EOLPPD" /><text value="Where has the individual identified as their preferred place to die?" /><answer><valueCoding><system value="http://fhir.nhs.net/ValueSet/preferred-place-of-death-snct-1" /><code value="710571000000101" /><display value="Preferred place of death: care home" /></valueCoding></answer></question></group></QuestionnaireResponse></resource></entry><entry><resource><CarePlan><id value="fea7bf33-3bc1-4eb7-851c-badb3a92135a" /><meta><profile value="http://fhir.nhs.net/StructureDefinition/cofe-endoflifecareplan-careplan-1" /></meta><extension url="http://fhir.nhs.net/StructureDefinition/extension-cofe-planned-review-date-1"><valueDate value="2015-07-04" /></extension><extension url="http://fhir.nhs.net/StructureDefinition/extension-cofe-plannedagreementtext-1"><valueString value="Full, active treatment plan, including in acute hospital setting" /></extension><identifier><value value="11a98de8-4c44-424c-bb6d-0049c4d2b777" /></identifier><subject><reference value="Patient/31686b67-9f20-4644-9a54-193d2f91de57" /><display value="Diane Hembury" /></subject><status value="active" /><category><coding><system value="http://fhir.nhs.net/ValueSet/eol-cda-observation-type-1" /><code value="EOLCP" /><display value="EOL Care Plan" /></coding></category></CarePlan></resource></entry><entry><resource><Patient><id value="31686b67-9f20-4644-9a54-193d2f91de57" /><meta><profile value="http://fhir.nhs.net/StructureDefinition/cofe-patient-1" /></meta><identifier><type><coding><system value="http://fhir.nhs.net/ValueSet/nhs-number-status-indicator-1" /><code value="01" /><display value="Number present and verified" /></coding></type><system value="http://fhir.nhs.net/Id/nhs-number" /><value value="6305786860" /></identifier><name><use value="official" /><family value="Hembury" /><given value="Diane" /><prefix value="Mrs" /></name><name><use value="usual" /><given value="Di" /></name><gender value="female" /><birthDate value="1977-05-01" /><address><use value="home" /><line value="21, Grove Street" /><city value="Overtown" /><district value="Bath" /><postalCode value="BA21 1PF" /></address><address><use value="temp" /><line value="15 Lucius Street" /><city value="Foxtown" /><district value="Bath" /><postalCode value="BA31 1BT" /></address><address><use value="work" /><line value="Room 8" /><line value="2nd floor" /><line value="Flat 2" /><line value="1 Lansdown Place" /><city value="East Bath" /><postalCode value="BA1 5ET" /></address><communication><language><extension url="http://fhir.nhs.net/StructureDefinition/extension-cofe-language-ability-proficiency-1"><valueCodeableConcept><coding><system value=" http://fhir.nhs.net/ValueSet/language-ability-proficiency-1" /><code value="E" /><display value="Excellent" /></coding></valueCodeableConcept></extension><extension url="http://fhir.nhs.net/StructureDefinition/extension-cofe-language-ability-mode-1"><valueCodeableConcept><coding><system value="http://fhir.nhs.net/ValueSet/language-ability-mode-1" /><code value="ESP" /><display value="Expressed spoken" /></coding></valueCodeableConcept></extension><coding><code value="en" /></coding></language><preferred value="true" /></communication><communication><language><extension url="http://fhir.nhs.net/StructureDefinition/extension-cofe-language-ability-proficiency-1"><valueCodeableConcept><coding><system value=" http://fhir.nhs.net/ValueSet/language-ability-proficiency-1" /><code value="F" /><display value="Fair" /></coding></valueCodeableConcept></extension><extension url="http://fhir.nhs.net/StructureDefinition/extension-cofe-language-ability-mode-1"><valueCodeableConcept><coding><system value="http://fhir.nhs.net/ValueSet/language-ability-mode-1" /><code value="ESP" /><display value="Expressed spoken" /></coding></valueCodeableConcept></extension><coding><code value="fr" /></coding></language><preferred value="false" /></communication><careProvider><reference value="Organisation/25e92b7d-c3e0-49fd-adb3-b92eaa229904" /></careProvider></Patient></resource></entry><entry><resource><Practitioner><id value="8ece9986-9af0-4882-b0cf-23a96ea7b509" /><meta><profile value="http://fhir.nhs.net/StructureDefinition/cofe-practitioner-1" /></meta><identifier><system value="http://fhir.nhs.net/Id/sds-user-id" /><value value="G13579135" /></identifier><identifier><system value="http://fhir.nhs.net/Id/sds-role-profile-id" /><value value="PT1357" /></identifier><name><family value="Smith" /><given value="Matt" /><prefix value="Dr." /></name><gender value="male" /><practitionerRole><managingOrganization><reference value="Organization/1474506e-609d-412e-952b-4bc74d769038" /><display value="King's College Hospital" /></managingOrganization><role><coding><system value="http://fhir.nhs.net/ValueSet/sds-job-role-name-1" /><code value="R0050" /><display value="Consultant" /></coding></role></practitionerRole><communication><coding><system value="http://fhir.nhs.net/ValueSet/human-language-1" /><code value="en" /><display value="English" /></coding></communication></Practitioner></resource></entry><entry><resource><Organization><id value="79600119-ebaf-4362-bb89-d473a33b1675" /><meta><profile value="http://fhir.nhs.net/StructureDefinition/cofe-organization-1" /></meta><identifier><system value="http://fhir.nhs.net/Id/ods-organization-code" /><value value="B86022" /></identifier></Organization></resource></entry><entry><resource><Practitioner><id value="924ad2f1-63dc-40cf-9f54-8da0fa3ba096" /><meta><profile value="http://fhir.nhs.net/StructureDefinition/cofe-practitioner-1" /></meta><identifier><system value="http://fhir.nhs.net/Id/sds-user-id" /><value value="G13579135" /></identifier><identifier><system value="http://fhir.nhs.net/Id/sds-role-profile-id" /><value value="NR2040" /></identifier><name><family value="Shaw" /><given value="Mandy" /></name><practitionerRole><managingOrganization><reference value="Organization/1474506e-609d-412e-952b-4bc74d769038" /><display value="Coordinate My Care" /></managingOrganization><role><coding><system value="http://fhir.nhs.net/ValueSet/sds-job-role-name-1" /><code value="NR2040" /><display value="Palliative Care Physician" /></coding></role></practitionerRole></Practitioner></resource></entry><entry><resource><Organization><id value="1474506e-609d-412e-952b-4bc74d769038" /><meta><profile value="http://fhir.nhs.net/StructureDefinition/cofe-organization-ods-1" /></meta><identifier><system value="http://fhir.nhs.net/Id/ods-organization-code" /><value value="RPY01" /></identifier><name value="Coordinate My Care" /></Organization></resource></entry><entry><resource><RelatedPerson><id value="1ae5a092-880b-4fe8-af9a-145124a1357d" /><meta><profile value="http://fhir.nhs.net/StructureDefinition/cofe-relatedperson-1" /></meta><identifier><system value="2.16.840.1.113883.2.1.3.2.4.15" /><value value="184142008" /></identifier><patient><reference value="Patient/31686b67-9f20-4644-9a54-193d2f91de57" /></patient><relationship><coding><system value="http://fhir.nhs.net/ValueSet/cda-person-relationship-type-1" /><code value="98" /><display value="Not Known" /></coding></relationship><name><family value="Sudden" /><given value="Sam" /><prefix value="Mr" /></name><telecom><value value="01234567890" /></telecom><address><use value="home" /><line value="1 James Street" /><city value="Govford" /></address></RelatedPerson></resource></entry><entry><resource><Practitioner><id value="e16e1d5a-17a9-40f4-a5b8-3d376a99fd38" /><meta><profile value="http://fhir.nhs.net/StructureDefinition/cofe-practitioner-1" /></meta><identifier><system value="http://fhir.nhs.net/Id/sds-user-id" /><value value="G13579135" /></identifier><identifier><system value="http://fhir.nhs.net/Id/sds-role-profile-id" /><value value="NR2040" /></identifier><name><family value="SINGARAVELOU" /><given value="B" /><prefix value="Dr" /></name><telecom><system value="phone" /><value value="01234567890" /></telecom><telecom><system value="phone" /><value value="02468024680" /></telecom><address><line value="36 DEWEY ROAD" /><postalCode value="RM10 8AR" /></address><practitionerRole><managingOrganization><reference value="Organization/4850bc87-8873-4f63-bccd-211173970d78" /><display value="Berwick Surgery" /></managingOrganization><role><coding><system value="http://fhir.nhs.net/ValueSet/sds-job-role-name-1" /><code value="NR0260" /><display value="General Medical Practitioner" /></coding></role></practitionerRole></Practitioner></resource></entry><entry><resource><Organization><id value="25e92b7d-c3e0-49fd-adb3-b92eaa229904" /><meta><profile value="http://fhir.nhs.net/StructureDefinition/cofe-provider-organization-1" /></meta><identifier><system value="http://fhir.nhs.net/Id/ods-organization-code" /><value value="RPY01" /></identifier><type><coding><system value="http://fhir.nhs.net/ValueSet/cda-organization-provider-type-1" /><code value="001" /><display value="GP Practice" /></coding></type><name value="Coordinate My Care" /><telecom><system value="phone" /><value value="01234544890" /><use value="work" /></telecom><telecom><system value="phone" /><value value="07810123654" /><use value="work" /></telecom><address><use value="work" /><line value="EASINGTON CCG" /><postalCode value="DH6 1AA" /></address></Organization></resource></entry></Bundle>