{"resourceType":"Bundle","id":"320d7908-d1ae-48aa-b055-94561076b945","meta":{"profile":["http://fhir.nhs.net/StructureDefinition/cofe-document-bundle-1"]},"type":"document","entry":[{"resource":{"resourceType":"Composition","id":"fa2a75a7-4257-422d-92a4-cf537f078e13","meta":{"profile":["http://fhir.nhs.net/StructureDefinition/cofe-composition-end-of-life-1"]},"text":{"status":"generated","div":"<div xmlns=\"http://www.w3.org/1999/xhtml\"><table width=\"100%\" border=\"1\" style=\"background-color: #ffffee\"><tr><td><p style=\"font-size:20px\"><b>Patient Care Record - Mrs Diane Hembury</b></p><p style=\"color:red;font-size:20px\"><b>NHS Number (Verified) - 6305786860</b></p><p style=\"font-size:16px\"><b>Date of Birth:</b> 01-May-1977, 09:05</p><p style=\"font-size:20px\"><b>Female</b></p><table width=\"100%\"><tbody><tr><td><p class=\"label\" style=\"font-style:italic\"> Communication Language </p><p style=\"font-weight:bold\">English (Excellent - Expressed spoken) <span class=\"label\" style=\"font-style:italic\">Preferred</span></p><p style=\"font-weight:bold\">French (Fair - Expressed spoken) </p></td></tr></tbody></table><table width=\"60%\"><tbody align=\"left\"><tr><td style=\"width:20%\"><i>Home Address</i></td><td style=\"width:20%\"><i>Primary Home Address</i></td><td style=\"width:20%\"><i>Visit Address</i></td></tr><tr><td style=\"width:33%;font-weight:bold\">120 Grove Street<br />Overtown<br />West Yorkshire<br />LS21 1PT</td><td style=\"width:33%;font-weight:bold\">15 Lucius Street<br />Foxtown<br />Bath<br />BA31 1BT</td><td style=\"width:33%;font-weight:bold\">Room 8<br />2nd floor<br />Flat 2<br />1 Lansdown Place<br />East Bath<br />BA1 5ET</td></tr></tbody></table><table width=\"100%\" cellpadding=\"5\"><tbody><tr><th><p style=\"font-style:italic;text-align: left; font-weight: normal\">GP Practice</p><table width=\"100%\" border=\"0\"><tbody align=\"left\"><tr><td style=\"width:50%\">BIRCHDALE ROAD MEDICAL CENTRE</td></tr></tbody></table><table width=\"50%\"><tbody align=\"left\"><tr><td style=\"width:25%\">Address</td><td style=\"width:25%\">Phone</td></tr><tr><td style=\"width:50%;font-weight: normal\">NEWHAM CCG<br />E7 8AR</td><td style=\"width:50%;font-weight: normal\">0123 4567890<br />07890123456</td></tr></tbody></table><table width=\"100%\"><tbody align=\"left\"><tr><td style=\"width:50%\"><p style=\"font-style:italic;font-weight: normal\">GP Practice Code</p></td></tr><tr><td style=\"width:50%\">F84641</td></tr></tbody></table><br /></th></tr></tbody></table><br /></td></tr></table><br /><table width=\"100%\" border=\"1\" style=\"background-color: #ffffee\"><tr><td><p style=\"font-size:16px\"><b>Document Created:</b> 03-Dec-2015, 08:39</p><p style=\"font-size:16px\"><b>Document Owner:</b>Coordinate My Care</p><p style=\"font-size:16px\"><b>Authored by:</b> Dr Mandy Shaw - Palliative Care Physician, Coordinate My Care on 02-Jun-2015, 09:05</p><p style=\"font-size:16px\"><b>Consent Status:</b>Consent given for electronic record sharing</p></td></tr></table><br /><br /><table width=\"100%\" border=\"1\" style=\"color:#000000; background-color:#dddddd\"><tr><td><p style=\"font-size:16px\"><b>Notified To:</b> Mr Sam Sudden - Not Known</p><p style=\"font-size:16px\"><b>Home Address:</b><br />1 James Street<br />Govford<br />GV11 7RD</p><p style=\"font-size:16px\"><b>Home Phone:</b> 01234567890</p><hr /><p style=\"font-size:16px\"><b>Notified To:</b> Mrs Samantha Sudden - Not Known</p><p style=\"font-size:16px\"><b>Home Address:</b><br />2 John Street<br />Govford<br />GV12 5RE</p><p style=\"font-size:16px\"><b>Home Phone:</b> 02468023456</p><hr /><p style=\"font-size:16px\"><b>Notified To:</b> Mrs Sarah Bloggs - Wife</p><p style=\"font-size:16px\"><b>Home Address:</b><br />321 Brighton Rock<br />Gumford<br />East Sussex</p><p style=\"font-size:16px\"><b>Home Phone:</b> 01235680246</p><hr /><p style=\"font-size:16px\"><b>Notified To:</b> Mr John Bloggs - Son</p><p style=\"font-size:16px\"><b>Home Address:</b><br />123 Brighton Pier<br />Gumford<br />East Sussex</p><p style=\"font-size:16px\"><b>Mobile Phone:</b> 09876543211</p><hr /><p style=\"font-size:16px\"><b>Notified To:</b> Mrs Sarah Bloggs - Not specified</p><hr /><p style=\"font-size:16px\"><b>Notified To:</b> Mr Peter Bloggs - Not specified</p><hr /><p style=\"font-size:16px\"><b>Notified To:</b> Mrs Joseph Balidon - Not specified</p><hr /><p style=\"font-size:16px\"><b>Notified To:</b> DR SINGARAVELOU B - General Practitioner</p><p style=\"font-size:16px\"><b>Notified Organization:</b> Berwick Surgery</p><p style=\"font-size:16px\"><b>Work Address:</b><br />36 DEWEY ROAD<br />RM10 8AR</p><p style=\"font-size:16px\"><b>DSwitchboard/Office Phone:</b> 01234567890</p><p style=\"font-size:16px\"><b>Direct Phone:</b> 02468024680</p><hr /><p style=\"font-size:16px\"><b>Notified To:</b> Ms E Nurse - District nurse</p><p style=\"font-size:16px\"><b>Notified Organization:</b> Bromley Healthcare</p><hr /><p style=\"font-size:16px\"><b>Notified To:</b> Dr B Community</p><p style=\"font-size:16px\"><b>Notified Organization:</b> Brent Community Health</p><hr /><p style=\"font-size:16px\"><b>Notified To:</b> Mrs G Palliative</p><p style=\"font-size:16px\"><b>Notified Organization:</b> Ealing Community Team</p><hr /><p style=\"font-size:16px\"><b>Notified To:</b> Dr A Hospice</p><p style=\"font-size:16px\"><b>Notified Organization:</b> St Joseph's Hospice</p><hr /><p style=\"font-size:16px\"><b>Notified To:</b> Dr A Hospice</p><p style=\"font-size:16px\"><b>Notified Organization:</b> St Luke's Hospice</p><hr /><p style=\"font-size:16px\"><b>Notified To:</b> Dr F Consultant - Hospital consultant</p><p style=\"font-size:16px\"><b>Notified Organization:</b> Barnet and Chase Farm</p><hr /><p style=\"font-size:16px\"><b>Notified To:</b> Dr G Riley - Hospital consultant</p><p style=\"font-size:16px\"><b>Notified Organization:</b> Royal Marsden</p><hr /><p style=\"font-size:16px\"><b>Notified To:</b>Ms H Other</p><p style=\"font-size:16px\"><b>Notified Organization:</b> Care Team</p><hr /><p style=\"font-size:16px\"><b>Notified To:</b>GP Daytime (key contact)</p><p style=\"font-size:16px\"><b>Notified Organization:</b> Berwick Surgery</p><hr /><p style=\"font-size:16px\"><b>Notified Organization:</b> Berwick Surgery</p><hr /><p style=\"font-size:16px\"><b>Notified To:</b>Ms A Care-Contact - Care Assistant</p><p style=\"font-size:16px\"><b>Notified Organization:</b> Care Contact</p><hr /></td></tr></table><br /><br /></div>"},"extension":[{"url":"http://fhir.nhs.net/StructureDefinition/extension-cofe-information-recipient-1","valueReference":{"reference":"Organization/575399c4-b48a-4faf-83b5-fa8a6474a7c6"}},{"url":"http://fhir.nhs.net/StructureDefinition/extension-cofe-participant-1","valueReference":{"reference":"RelatedPerson/1ae5a092-880b-4fe8-af9a-145124a1357d"}},{"url":"http://fhir.nhs.net/StructureDefinition/extension-cofe-participant-1","valueReference":{"reference":"RelatedPerson/5ea1331b-c578-48cd-a596-13a6d4ebd06a"}},{"url":"http://fhir.nhs.net/StructureDefinition/extension-cofe-participant-1","valueReference":{"reference":"RelatedPerson/1ed3fa7b-0f20-4ffd-8d55-8eb4994a716a"}},{"url":"http://fhir.nhs.net/StructureDefinition/extension-cofe-participant-1","valueReference":{"reference":"RelatedPerson/1f0d8c47-0712-4d1c-863a-b80f00ddb4ca"}},{"url":"http://fhir.nhs.net/StructureDefinition/extension-cofe-participant-1","valueReference":{"reference":"RelatedPerson/b871ba7b-d6bb-46bf-8f5b-12994f51fd65"}},{"url":"http://fhir.nhs.net/StructureDefinition/extension-cofe-participant-1","valueReference":{"reference":"RelatedPerson/0d4ddfba-b36a-4435-8310-600be295cab9"}},{"url":"http://fhir.nhs.net/StructureDefinition/extension-cofe-participant-1","valueReference":{"reference":"RelatedPerson/892fa432-9a51-4736-9dcd-02ec3107f872"}},{"url":"http://fhir.nhs.net/StructureDefinition/extension-cofe-participant-1","valueReference":{"reference":"Practitioner/e16e1d5a-17a9-40f4-a5b8-3d376a99fd38"}},{"url":"http://fhir.nhs.net/StructureDefinition/extension-cofe-participant-1","valueReference":{"reference":"Practitioner/4c096051-7f73-449f-b552-3b4de5825c77"}},{"url":"http://fhir.nhs.net/StructureDefinition/extension-cofe-participant-1","valueReference":{"reference":"Practitioner/d47e67c6-5698-4638-9c5b-a29d13738249"}},{"url":"http://fhir.nhs.net/StructureDefinition/extension-cofe-participant-1","valueReference":{"reference":"Practitioner/2ceb2362-1891-42fc-aacf-a4edd554468a"}},{"url":"http://fhir.nhs.net/StructureDefinition/extension-cofe-participant-1","valueReference":{"reference":"Practitioner/eaad094c-58e9-448e-bf23-618912054849"}},{"url":"http://fhir.nhs.net/StructureDefinition/extension-cofe-participant-1","valueReference":{"reference":"Practitioner/7291998c-9c2f-48ae-a9b7-58a0772bedf4"}},{"url":"http://fhir.nhs.net/StructureDefinition/extension-cofe-participant-1","valueReference":{"reference":"Practitioner/f1b6593e-25f4-4b2f-b750-009037c4d731"}},{"url":"http://fhir.nhs.net/StructureDefinition/extension-cofe-participant-1","valueReference":{"reference":"Practitioner/d17dc85d-87bc-43a2-9fc3-12ff89870bd6"}},{"url":"http://fhir.nhs.net/StructureDefinition/extension-cofe-participant-1","valueReference":{"reference":"Practitioner/d17dc85d-87bc-43a2-9fc3-12ff89870bd6"}},{"url":"http://fhir.nhs.net/StructureDefinition/extension-cofe-participant-1","valueReference":{"reference":"Practitioner/2ceb2362-1891-42fc-aacf-a4edd554468a"}},{"url":"http://fhir.nhs.net/StructureDefinition/extension-cofe-participant-1","valueReference":{"reference":"Practitioner/bacfadf4-d333-4199-9005-c1646dd5286f"}},{"url":"http://fhir.nhs.net/StructureDefinition/extension-cofe-participant-1","valueReference":{"reference":"Practitioner/bacfadf4-d333-4199-9005-c1646dd5286f"}},{"url":"http://fhir.nhs.net/StructureDefinition/extension-cofe-participant-1","valueReference":{"reference":"Practitioner/80a64935-6782-47bd-8cc0-05d2bf0222f8"}},{"url":"http://fhir.nhs.net/StructureDefinition/extension-cofe-performer-1","valueUri":"http://fhir.nhs.net/StructureDefinition/extension-cofe-performer-1"},{"url":"http://fhir.nhs.net/StructureDefinition/extension-cofe-authorization-1","valueUri":"http://fhir.nhs.net/StructureDefinition/extension-cofe-authorization-1"}],"identifier":{"value":"faaf8fd7-870f-499a-b565-7d93339e258e"},"date":"2015-07-11T10:11:15+00:00","type":{"coding":[{"system":"http://snomed.info/sct","code":"861421000000109","display":"End of Life Care Coordination Summary"}]},"title":"End of Life Care Coordination Summary","status":"final","confidentiality":"V","subject":{"reference":"Patient/31686b67-9f20-4644-9a54-193d2f91de57","display":"Mrs Diane Hembury"},"author":[{"reference":"Practitioner/924ad2f1-63dc-40cf-9f54-8da0fa3ba096","display":"Dr Mandy Shaw"}],"custodian":{"reference":"Organization/1474506e-609d-412e-952b-4bc74d769038","display":"Royal Marsden"},"section":[{"title":"Individual requirements","code":{"coding":[{"system":"http://snomed.info/sct","code":"1052901000000109"}]},"text":{"status":"generated","div":"<div xmlns=\"http://www.w3.org/1999/xhtml\"><h2>Individual requirements</h2><table style=\"color:#000000; background-color:#dddddd\" width=\"100%\" border=\"1\"><tbody><tr><th>Communication preferences</th></tr><tr><td>French spoken, English preferred</td></tr></tbody></table><br /><table style=\"color:#000000; background-color:#dddddd\" width=\"100%\" border=\"1\"><tbody><tr><th>Disabilities</th></tr><tr><td>1.Hearing loss</td></tr><tr><td>2.Visual Impairment</td></tr><tr><td>3.Difficulty with Verbal communication</td></tr></tbody></table><br /><table style=\"color:#000000; background-color:#dddddd\" width=\"100%\" border=\"1\"><tbody><tr><th>Disability details</th></tr><tr><td> No further information is available</td></tr></tbody></table><br /></div>"}},{"title":"Diagnosis","code":{"coding":[{"system":"http://snomed.info/sct","code":"887161000000102"}]},"text":{"status":"generated","div":"<div xmlns=\"http://www.w3.org/1999/xhtml\"><h2>Diagnoses</h2><table style=\"color:#000000; background-color:#dddddd\" width=\"100%\" border=\"1\"><tbody><tr><th align=\"left\">Diagnosis</th><th align=\"left\">Main?</th><th align=\"left\">Condition Date</th><th align=\"left\">End Date</th><th align=\"left\">Details</th><th align=\"left\">Long-term?</th><th align=\"left\">Life-threatening?</th></tr><tr><td>Cancer Diagnosis – Independent Multiple Sites</td><td>Yes</td><td>10-May-2006</td><td /><td>cancer diagnosis details</td><td>Yes</td><td>No</td></tr><tr><td>Chronic Obstructive Pulmonary Disease (COPD)</td><td /><td>01 Feb 2015</td><td>02 Feb 2015</td><td>Diagnosis 2</td><td>Yes</td><td>Yes</td></tr></tbody></table><br /><table style=\"color:#000000; background-color:#dddddd\" width=\"100%\" border=\"1\"><tbody><tr><th align=\"left\">Diagnosis</th><th align=\"left\">Diagnosis Date</th><th align=\"left\">Diagnosis Stage</th><th align=\"left\">Further Comment</th></tr><tr><td>Widespread metastatic malignant neoplastic disease</td><td>02-Jan-2016</td><td>Early onset</td><td>Patient and carer aware of condition</td></tr><tr><td>Chronic obstructive lung disease</td><td>02-Jan-2016</td><td>Advanced - life threatening</td><td>Patient aware of condition</td></tr></tbody></table><br /><table style=\"color:#000000; background-color:#dddddd\" width=\"100%\" border=\"1\"><tbody><tr><th align=\"left\" colspan=\"7\">Diagnosis awareness</th></tr><tr><td style=\"width:50%\">Is the Patient Aware of Diagnosis?</td><td style=\"width:50%\">patient aware of diagnosis</td></tr><tr><td>Is the Carer Aware of Diagnosis?</td><td>carer aware of diagnosis</td></tr></tbody></table><br /></div>"},"entry":[{"reference":"Condition/e3d96a2e-abbe-4e78-93dd-e5870fc4f796","display":"COFE-Diagnosis-Condition-Example-1"},{"reference":"Condition/98d29b5a-da2b-4f48-99b8-53924642c9fd","display":"COFE-Diagnosis-Condition-Example-2"}]},{"title":"Relevant past medical, surgical and mental health history","code":{"coding":[{"system":"http://snomed.info/sct","code":"933271000000106"}]},"text":{"status":"generated","div":"<div xmlns=\"http://www.w3.org/1999/xhtml\"><h2>Relevant past medical, surgical and mental health history</h2><table style=\"color:#000000; background-color:#dddddd\" width=\"100%\" border=\"1\"><tbody><tr><th colspan=\"2\" align=\"left\">Significant Past Medical History</th></tr><tr><td style=\"width:50%\">Anterior chest pain</td><td style=\"width:50%\">Secondary malignant neoplasm of chest wall</td></tr></tbody></table><br /></div>"},"entry":[{"reference":"Observation/f7c59646-abf9-4e9b-bb56-48ce17b84534","display":"COFE-SPMH-Observation-1-Example-1"}]},{"title":"Medications and medical devices","code":{"coding":[{"system":"http://snomed.info/sct","code":"933361000000108"}]},"text":{"status":"generated","div":"<div xmlns=\"http://www.w3.org/1999/xhtml\"><h2>Medications and medical devices</h2><table style=\"color:#000000; background-color:#dddddd\" width=\"100%\" border=\"1\"><caption>Medication status</caption><tbody><tr><th colspan=\"2\">Relevant previous medications</th></tr><tr><td>Has patient been prescribed strong opioids?</td><td>Y</td></tr></tbody></table><br /><table style=\"color:#000000; background-color:#dddddd\" width=\"100%\" border=\"1\"><caption>Medication status: Current Medications</caption><tbody><tr><th>#</th><th>Medication name</th><th>Indication</th><th>Route</th><th>Dose</th><th>Medication frequency</th><th>Additional instructions</th><th>Start Date</th><th>End Date</th></tr><tr><td>1</td><td> Paroxetine 10mg/5ml oral suspension </td><td>Antidepressant</td><td>Nasogastric</td><td>10mg</td><td>daily</td><td>Patient must be prescribed Brand1</td><td>12-Feb-2015</td><td>26-Feb-2015</td></tr><tr><td>2</td><td> Glycerol 2g suppositories </td><td>Constipation</td><td>Rectal</td><td>2g</td><td>4 hourly</td><td>Patient must be prescribed Brand2</td><td>12-Feb-2015</td><td>26-Feb-2015</td></tr></tbody></table><br /><table style=\"color:#000000; background-color:#dddddd\" width=\"100%\" border=\"1\"><caption>Medication status: Just in Case Medication</caption><tbody><tr><th>#</th><th>Medication name</th><th>Type of Drug</th><th>Route</th><th>Dose</th><th>Medication frequency</th><th>Additional instructions</th><th>Start Date</th><th>End Date</th></tr><tr><td>1</td><td> Midazolam 10mg/10ml inj pre-filled syringes </td><td>IV/IM Anxiolytic/Sedative</td><td>Intramuscular</td><td>10mg</td><td>3 times</td><td>Brand3</td><td>12-Feb-2015</td><td>03-Feb-2016</td></tr><tr><td>2</td><td> Diazepam 5mg/2.5ml rectal solution tube </td><td>Rectal Anticonvulsant</td><td>Rectal</td><td>5mg</td><td>20 times</td><td>Brand4</td><td>12-Feb-2015</td><td>11-Feb-2016</td></tr></tbody></table><br /></div>"},"entry":[{"reference":"Observation/6cca2c2b-f0ae-4d4e-9400-d2400c3a860a","display":"COFE-MedicationsAdministered-MedicationStatement-1-Example-1"},{"reference":"Observation/14764813-c1b0-43a8-aee8-4559ec4671ad","display":"COFE-MedicationsAdministered-MedicationStatement-1-Example-1"},{"reference":"Observation/ab7bb7d8-99ae-4cce-a6f8-195259b13aa1","display":"COFE-MedicationsAdministered-MedicationStatement-1-Example-1"},{"reference":"Observation/6c85ed8c-6df0-44db-93df-197669636896","display":"COFE-MedicationsAdministered-MedicationStatement-1-Example-1"}]},{"title":"Allergies and adverse reactions","code":{"coding":[{"system":"http://snomed.info/sct","code":"886921000000105"}]},"text":{"status":"generated","div":"<div xmlns=\"http://www.w3.org/1999/xhtml\"><h2>Allergies and adverse reactions</h2><table style=\"color:#000000; background-color:#dddddd\" width=\"100%\" border=\"1\"><tbody><tr><th>Causative agent</th><th>Description of the reaction</th></tr><tr><td style=\"width:50%\">Sticking plaster</td><td>Contact dermatitis caused by chemical</td></tr><tr><td>Penicillin</td><td>Penicillin adverse reaction</td></tr><tr><td>Midazolam 10mg/5ml oral solution</td><td>Mazindol adverse reaction</td></tr></tbody></table><br /><p style=\"font-weight:bold\">These diagnosis are from coded entries below</p><table style=\"color:#000000; background-color:#dddddd\" width=\"100%\" border=\"1\"><tbody><tr><th>Causative Agent</th><td style=\"width:50%\">Lanolin oil</td></tr><tr><th colspan=\"2\">Reaction details</th></tr><tr><th>Reaction</th><td>supraglottic swelling</td></tr><tr><th>Date Recorded</th><td>30-Sep-2016</td></tr><tr><th>Severity of the Adverse Reaction</th><td>moderate</td></tr><tr><th>Certainty</th><td>Probable diagnosis</td></tr><tr><th>Comment</th><td>Patient inhaled lanolin oil from new jumper on first wear.</td></tr><tr><th>Type of reaction</th><td>Allergic Reaction</td></tr><tr><th>Allergy Evidence</th><td>Proven by prick test</td></tr><tr><th>Probability of Recurrence</th><td>Almost certain probability of recurrence</td></tr><tr><th>Date First Experienced</th><td>31-Aug-2016</td></tr></tbody></table><br /><p style=\"font-weight:bold\">This is from code example below that's done in text (originalText)</p><table style=\"color:#000000; background-color:#dddddd\" width=\"100%\" border=\"1\"><tbody><tr><th>Causative Agent</th><td style=\"width:50%\">Cat dander</td></tr><tr><th colspan=\"2\">Reaction details</th></tr><tr><th>Reaction</th><td>Uncontrollable sneezing</td></tr><tr><th>Date Recorded</th><td>26-Sep-2016</td></tr><tr><th>Severity</th><td>Severe</td></tr><tr><th>Certainty</th><td>Confirmed present</td></tr><tr><th>Comment</th><td>Patient has recently purchased a cat</td></tr><tr><th>Type of reaction</th><td>Unknown</td></tr><tr><th>Allergy Evidence</th><td>Confirmed by challenge test</td></tr><tr><th>Probability of Recurrence</th><td>Almost certain probability of recurrence</td></tr><tr><th>Date First Experienced</th><td>Since childhood</td></tr></tbody></table><br /><p style=\"font-weight:bold\">This is an example of no allergies found</p><br />\r\nNo known drug allergies or adverse reactions\r\n<br /><p style=\"font-weight:bold\">This a coded example from below with minimum information</p><table style=\"color:#000000; background-color:#dddddd\" width=\"100%\" border=\"1\"><tbody><tr><th>Causative Agent</th><td style=\"width:50%\">aspirin</td></tr><tr><th colspan=\"2\">Reaction details</th></tr><tr><th>Date Recorded</th><td>18-May-2016</td></tr><tr><th>Type of reaction</th><td>Unknown</td></tr></tbody></table><br /></div>"},"entry":[{"reference":"AllergyIntolerence/97f0402c-ecf2-4d41-aa56-e6028f097081","display":"COFE-AllergicOrAdverseReactions-AllergyIntolerence-Example-1"},{"reference":"AllergyIntolerence/caccc801-17a9-4c65-948a-defa33f4ae90","display":"COFE-AllergicOrAdverseReactions-AllergyIntolerence-Example-2"},{"reference":"AllergyIntolerence/f81fe70b-53e4-45fc-ad0d-d428a77468be","display":"COFE-AllergicOrAdverseReactions-AllergyIntolerence-Example-2"},{"reference":"AllergyIntolerence/c33db1ed-17c1-493c-ab85-b641302b3f58","display":"COFE-AllergicOrAdverseReactions-AllergyIntolerence-Example-2"},{"reference":"AllergyIntolerence/7f09f0c8-21aa-431f-a961-88c232b6cae3","display":"COFE-AllergicOrAdverseReactions-AllergyIntolerence-Example-2"},{"reference":"AllergyIntolerence/2d79d6c9-dbe2-4455-8baa-da3bba456616","display":"COFE-AllergicOrAdverseReactions-AllergyIntolerence-Example-2"}]},{"title":"Safety Alerts","code":{"coding":[{"system":"http://snomed.info/sct","code":"886931000000107"}]},"text":{"status":"generated","div":"<div xmlns=\"http://www.w3.org/1999/xhtml\"><h2>Safety Alerts</h2><table style=\"color:#000000; background-color:#dddddd\" width=\"100%\" border=\"1\"><tbody><tr><th align=\"left\" colspan=\"2\">Risks to others</th></tr><tr><td>Registered with violent patient scheme</td><td>Patient has shown violent acts towards others</td></tr></tbody></table><br /><table style=\"color:#000000; background-color:#dddddd\" width=\"100%\" border=\"1\"><tbody><tr><th align=\"left\" colspan=\"2\">Risks to self</th></tr><tr><td>Risk to health associated with overweight and obesity, at high risk</td><td>Patient has low self-esteem.</td></tr></tbody></table><br /></div>"},"entry":[{"reference":"Flag/1df994ec-ce2b-462e-9488-c3c977fe76cd","display":"COFE-RiskFlag-1-Example-1"},{"reference":"Flag/b6e9e9ce-4e70-4388-8846-58ee39707f00","display":"COFE-RiskFlag-1-Example-2"}]},{"title":"Legal Information","code":{"coding":[{"system":"http://snomed.info/sct","code":"886961000000102"}]},"text":{"status":"generated","div":"<div xmlns=\"http://www.w3.org/1999/xhtml\"><h2>Legal Information</h2><table style=\"color:#000000; background-color:#dddddd\" width=\"100%\" border=\"1\"><tbody><tr><th align=\"left\" colspan=\"2\">Advance decision to refuse treatment (ADRT)</th></tr><tr><td style=\"width:50%\">EOL Patient Advance Decision to Refuse Treatment</td><td style=\"width:50%\">Has advance decision to refuse treatment (Mental Capacity Act 2005)</td></tr><tr><td>EOL Patient Advance Decision to Refuse Treatment Docs Location</td><td>EOL ADRT document in top desk drawer in the patient's living room</td></tr><tr><td>EOL Patient Advance Decision to Refuse Treatment Discussed</td><td>Has involved healthcare professional in discussion about advance decision to refuse treatment (Mental Capacity Act 2005)</td></tr></tbody></table><br /><table style=\"color:#000000; background-color:#dddddd\" width=\"100%\" border=\"1\"><tbody><tr><th align=\"left\" colspan=\"2\">Safeguarding issues</th></tr><tr><td style=\"width:50%\">Safeguarding intervention</td><td style=\"width:50%\">Safeguarding adults protection plan agreed.</td></tr></tbody></table><br /><table style=\"color:#000000; background-color:#dddddd\" width=\"100%\" border=\"1\"><tbody><tr><th align=\"left\" colspan=\"2\">Lasting power of attorney for personal welfare or court-appointed deputy</th></tr><tr><td style=\"width:50%\">Has appointed person with personal welfare lasting power of attorney with authority for life sustaining decisions (Mental Capacity Act 2005)</td><td style=\"width:50%\">Sister: Louise Hembury</td></tr></tbody></table><br /><table style=\"color:#000000; background-color:#dddddd\" width=\"100%\" border=\"1\"><tbody><tr><th align=\"left\" colspan=\"2\">Mental Health Act or equivalent status</th></tr><tr><td style=\"width:50%\">Finding of legal status under Mental Health Act 1983</td><td style=\"width:50%\">Subject to community treatment order under Section 17A of Mental Health Act 1983 (England and Wales)</td></tr></tbody></table></div>"},"entry":[{"reference":"Observation/ccfd85b9-5b5e-44f7-a8d4-500b7b0864bd","display":"COFE-ADTRT-Observation-1-Example-1"},{"reference":"Observation/bc14a26f-beab-4fb7-b34b-9b5f1b634b3c","display":"COFE-Safeguarding-Observation-1-Example-1"},{"reference":"Observation/ff15fe40-2251-4f79-a5aa-93239712df86","display":"COFE-LastingPowerOfAttorney-1-Example-1"}]},{"title":"Social context","code":{"coding":[{"system":"http://snomed.info/sct","code":"887051000000101"}]},"text":{"status":"generated","div":"<div xmlns=\"http://www.w3.org/1999/xhtml\"><h2>Social Context</h2><table style=\"color:#000000; background-color:#dddddd\" width=\"100%\" border=\"1\"><tbody><tr><th>Household composition</th></tr><tr><td>Lives with partner</td></tr><tr><td>Lack of space in house</td></tr></tbody></table><br /><table style=\"color:#000000; background-color:#dddddd\" width=\"100%\" border=\"1\"><tbody><tr><th>Mobility or Disability Observations</th></tr><tr><td>Does not drive a vehicle</td></tr><tr><td>Disqualified from driving due to excess alcohol</td></tr></tbody></table><br /></div>"},"entry":[{"reference":"Observation/f6231c77-fc41-4e2a-bf18-08e22b450a22","display":"COFE-Housing-Observation-1-Example-1"},{"reference":"Observation/33dfe095-3ba3-4a45-92a7-cf2c135773a3","display":"COFE-Mobility-Observation-1-Example-1"}]},{"title":"Person and carer concerns, expectations and wishes","code":{"coding":[{"system":"http://fhir.nhs.net/ValueSet/fhir-observation-1","code":"887131000000107"}]},"text":{"status":"generated","div":"<div xmlns=\"http://www.w3.org/1999/xhtml\"><h2>End of life preferences</h2><table style=\"color:black; background-color:#dddddd\" width=\"100%\" border=\"1\"><tbody><tr><th colspan=\"2\">End of life preferences</th></tr><tr><td>Patient’s preferred place of care</td><td>1.Home</td></tr><tr><td>Patient’s preferred place of death</td><td>2.Care Home</td></tr></tbody></table><br /></div>"}},{"title":"Crisis Care Plan","code":{"coding":[{"system":"http://snomed.info/sct","code":"325681000000102"}]},"text":{"status":"generated","div":"<div xmlns=\"http://www.w3.org/1999/xhtml\"><h2>Crisis Care Plan</h2><table width=\"100%\" border=\"1\" style=\"color:#000000; background-color:#dddddd\"><tbody><tr><th align=\"left\" colspan=\"2\">Anticipatory actions</th></tr><tr><td>In Case of Pain Crises</td><td>Administer Ibuprofen, two 200mg tablets every four to six hours</td></tr><tr><td>In Case of Breathlessness</td><td>Administer oxygen</td></tr><tr><td>In Case of Nausea/Vomiting</td><td>Administer Domperidone, 10 mg up to 3 times daily</td></tr></tbody></table><br /><table width=\"100%\" border=\"1\" style=\"color:#000000; background-color:#dddddd\"><tbody><tr><th style=\"font-size:20px\" align=\"left\" colspan=\"2\">Cardio-pulmonary resuscitation (CPR) decision</th></tr><tr><td>Has a discussion regarding CPR taken place with the patient?</td><td>1.Yes</td></tr><tr><td>Should CPR commence?</td><td>2.No</td></tr><tr><td>Date CPR decision made</td><td>11-Feb-2015</td></tr><tr><td>EOL Do Not Attempt Cardio-pulmonary Resuscitation Review Date</td><td>02-Jun-2016</td></tr><tr><td>EOL Do Not Attempt Cardio-pulmonary Resuscitation</td><td>Not for attempted cardiopulmonary resuscitation</td></tr><tr><td>EOL Do Not Attempt Cardio-pulmonary Resuscitation Docs Location</td><td>DNACPR document in top desk drawer in the patient's living room</td></tr><tr><td>Discussion about do not attempt cardiopulmonary resuscitation clinical decision</td><td>Family member informed of cardiopulmonary resuscitation clinical decision</td></tr></tbody></table><br /><table width=\"100%\" border=\"1\" style=\"color:#000000; background-color:#dddddd\"><tbody><tr><th style=\"font-size:20px\" align=\"left\" colspan=\"2\">Anticipatory medicines/equipment</th></tr><tr><td>EOL Anticipatory Medicine Box Location</td><td>On shelf in front room</td></tr></tbody></table><br /></div>"},"entry":[{"reference":"Observation/9322a1b5-5264-47ee-a0b6-e30fafa7f1ac","display":"COFE-CrisisCarePlan-Observation-1-Example-1"}]},{"title":"End of life care","code":{"coding":[{"system":"http://snomed.info/sct","code":"935921000000102"}]},"text":{"status":"generated","div":"<div xmlns=\"http://www.w3.org/1999/xhtml\"><h2>End of life care</h2><table width=\"100%\" border=\"1\" style=\"color:#000000; background-color:#dddddd\"><tbody><tr><th style=\"font-size:20px\" align=\"left\" colspan=\"2\">EOL Care Plan</th></tr><tr><td>EOL Planned Review Date</td><td>02-May-2016</td></tr><tr><td>Plan Agreed with Patient Carer</td><td>Full, active treatment plan, including in acute hospital setting</td></tr></tbody></table><br /><br /></div>"}}]}},{"resource":{"resourceType":"Patient","id":"31686b67-9f20-4644-9a54-193d2f91de57","meta":{"profile":["http://fhir.nhs.net/StructureDefinition/cofe-patient-1"]},"extension":[{"url":"http://hl7.org/fhir/StructureDefinition/patient-birthTime","valueDateTime":"1977-05-01T09:05:00+00:00"}],"identifier":[{"extension":[{"url":"http://fhir.nhs.net/StructureDefinition/extension-cofe-nhs-number-verification-status-1","valueCodeableConcept":{"coding":[{"system":"http://fhir.nhs.net/ValueSet/nhs-number-status-indicator-1","code":"01","display":"Number present and verified"}]}}],"system":"http://fhir.nhs.net/Id/nhs-number","value":"6305786860"}],"name":[{"use":"official","family":["Hembury"],"given":["Diane"],"prefix":["Mrs"]},{"use":"usual","given":["Di"]}],"telecom":[{"value":"01256654321","use":"home"},{"value":"07710447966","use":"mobile"}],"gender":"female","birthDate":"1977-05-01","address":[{"use":"home","line":["21, Grove Street"],"city":"Overtown","district":"Bath","postalCode":"BA21 1PF"},{"use":"temp","line":["15 Lucius Street"],"city":"Foxtown","district":"Bath","postalCode":"BA31 1BT"},{"use":"work","line":["Room 8","2nd floor","Flat 2","1 Lansdown Place"],"city":"East Bath","postalCode":"BA1 5ET"}],"communication":[{"language":{"extension":[{"url":"http://fhir.nhs.net/StructureDefinition/extension-cofe-language-ability-proficiency-1","valueCodeableConcept":{"coding":[{"system":" http://fhir.nhs.net/ValueSet/language-ability-proficiency-1","code":"E","display":"Excellent"}]}},{"url":"http://fhir.nhs.net/StructureDefinition/extension-cofe-language-ability-mode-1","valueCodeableConcept":{"coding":[{"system":"http://fhir.nhs.net/ValueSet/language-ability-mode-1","code":"ESP","display":"Expressed spoken"}]}}],"coding":[{"code":"en"}]},"preferred":true},{"language":{"extension":[{"url":"http://fhir.nhs.net/StructureDefinition/extension-cofe-language-ability-proficiency-1","valueCodeableConcept":{"coding":[{"system":" http://fhir.nhs.net/ValueSet/language-ability-proficiency-1","code":"F","display":"Fair"}]}},{"url":"http://fhir.nhs.net/StructureDefinition/extension-cofe-language-ability-mode-1","valueCodeableConcept":{"coding":[{"system":"http://fhir.nhs.net/ValueSet/language-ability-mode-1","code":"ESP","display":"Expressed spoken"}]}}],"coding":[{"code":"fr"}]},"preferred":false}]}},{"resource":{"resourceType":"Condition","id":"e3d96a2e-abbe-4e78-93dd-e5870fc4f796","meta":{"profile":["http://fhir.nhs.net/StructureDefinition/cofe-diagnosis-condition-1"]},"extension":[{"url":"http://fhir.nhs.net/StructureDefinition/extension-cofe-diagnosisawareness-1","valueCodeableConcept":{"coding":[{"system":"http://snomed.info/sct","code":"473302008","display":"Aware of diagnosis"},{"system":"http://snomed.info/sct","code":"473308007","display":"Caregiver aware of diagnosis"}]}}],"identifier":[{"value":"16850e54-63f1-4983-a6ed-233f99c390f9"}],"patient":{"reference":"Patient/31686b67-9f20-4644-9a54-193d2f91de57","display":"Diane Hembury"},"asserter":{"reference":"Practitioner/f7737bf5-cfe7-491c-af3a-6f7177d5aee1","display":"Dr Tom Wood"},"code":{"coding":[{"system":"http://snomed.info/sct","code":"405843009:106229004=8319008","display":"405843009 |Widespread metastatic malignant neoplastic disease|:106229004 |Qualifier for type of diagnosis| = 8319008 |Principal diagnosis|"}]},"category":{"coding":[{"system":"http://hl7.org/fhir/ValueSet/condition-category","code":"diagnosis","display":"Diagnosis"}]},"verificationStatus":"confirmed","onsetPeriod":{"start":"2016-01-02T09:05:00+00:00"},"stage":{"summary":{"text":"Early onset"}}}},{"resource":{"resourceType":"Condition","id":"98d29b5a-da2b-4f48-99b8-53924642c9fd","meta":{"profile":["http://fhir.nhs.net/StructureDefinition/cofe-diagnosis-condition-1"]},"extension":[{"url":"http://fhir.nhs.net/StructureDefinition/extension-cofe-diagnosisawareness-1","valueCodeableConcept":{"coding":[{"system":"http://snomed.info/sct","code":"473302008","display":"Aware of diagnosis"}]}}],"identifier":[{"value":"16850e54-63f1-4983-a6ed-233f99c390f9"}],"patient":{"reference":"Patient/31686b67-9f20-4644-9a54-193d2f91de57","display":"Diane Hembury"},"asserter":{"reference":"Practitioner/8ece9986-9af0-4882-b0cf-23a96ea7b509","display":"Dr Matt Smith"},"code":{"coding":[{"system":"http://snomed.info/sct","code":"13645005 :106229004=85097005","display":"13645005 | Chronic obstructive lung disease | : 106229004 | Qualifier for type of diagnosis | = 85097005 | Secondary diagnosis |"}]},"category":{"coding":[{"system":"http://hl7.org/fhir/ValueSet/condition-category","code":"diagnosis","display":"Diagnosis"}]},"verificationStatus":"confirmed","onsetPeriod":{"start":"2016-01-02T09:06:00+00:00"},"stage":{"summary":{"text":"Advanced - life threatening"}}}},{"resource":{"resourceType":"Observation","id":"f7c59646-abf9-4e9b-bb56-48ce17b84534","meta":{"profile":["http://fhir.nhs.net/StructureDefinition/cofe-spmh-observation-1"]},"identifier":[{"value":"f1129597-e9b4-404f-B410-de51abcbfb95"}],"status":"final","code":{"coding":[{"system":"http://fhir.nhs.net/ValueSet/cda-observation-type-1","code":"SPMH","display":"Significant Past Medical History"}]},"subject":{"reference":"Patient/31686b67-9f20-4644-9a54-193d2f91de57","display":"Diane Hembury"},"effectivePeriod":{"start":"2010-03-02"},"valueCodeableConcept":{"coding":[{"system":"http://fhir.nhs.net/ValueSet/housing-snct-1","code":"161973001","display":"Anterior chest wall pain"}],"text":"Secondary malignant neoplasm of chest wall"}}},{"resource":{"resourceType":"MedicationStatement","id":"6cca2c2b-f0ae-4d4e-9400-d2400c3a860a","meta":{"profile":["http://fhir.nhs.net/StructureDefinition/cofe-medicationsadministered-medicationstatement-1"]},"extension":[{"url":"http://fhir.nhs.net/StructureDefinition/extension-cofe-administration-unit-code-1","valueCodeableConcept":{"coding":[{"system":"http://snomed.info/sct","code":"385022006","display":"Oral liquid"}]}}],"identifier":[{"value":"284b6683-26a7-4505-92aa-0c5246ec7137"}],"patient":{"reference":"Patient/31686b67-9f20-4644-9a54-193d2f91de57","display":"Diane Hembury"},"status":"completed","reasonForUseCodeableConcept":{"coding":[{"system":"http://snomed.info/sct","code":"310496002","display":"moderate depression"}]},"effectivePeriod":{"start":"2015-02-12","end":"2015-02-26"},"note":"Patient must be prescribed Brand1","medicationCodeableConcept":{"coding":[{"system":"http://snomed.info/sct","code":"13004511000001109","display":"Paroxetine 10mg/5ml oral suspension"}]},"dosage":[{"text":"10mg to be taken daily. Nasogastric route","route":{"coding":[{"system":"http://snomed.info/sct","code":"127492001","display":"Nasogastric route"}]}}]}},{"resource":{"resourceType":"MedicationStatement","id":"14764813-c1b0-43a8-aee8-4559ec4671ad","meta":{"profile":["http://fhir.nhs.net/StructureDefinition/cofe-medicationsadministered-medicationstatement-1"]},"extension":[{"url":"http://fhir.nhs.net/StructureDefinition/extension-cofe-administration-unit-code-1","valueCodeableConcept":{"coding":[{"system":"http://snomed.info/sct","code":"420929008","display":"Rectal suppository"}]}}],"identifier":[{"value":"d39f1675-7d85-482d-8ca1-1aef6ddcc48b"}],"patient":{"reference":"Patient/31686b67-9f20-4644-9a54-193d2f91de57","display":"Diane Hembury"},"status":"completed","reasonForUseCodeableConcept":{"coding":[{"system":"http://snomed.info/sct","code":"14760008","display":"Constipation"}]},"effectivePeriod":{"start":"2015-02-12","end":"2015-02-26"},"note":"Patient must be prescribed Brand2","medicationCodeableConcept":{"coding":[{"system":"http://snomed.info/sct","code":"317607005","display":"Glycerol 2g suppositories"}]},"dosage":[{"text":"2mg to be inserted every 4 hours","route":{"coding":[{"system":"http://snomed.info/sct","code":"37161004","display":"Rectal route"}]}}]}},{"resource":{"resourceType":"MedicationStatement","id":"ab7bb7d8-99ae-4cce-a6f8-195259b13aa1","meta":{"profile":["http://fhir.nhs.net/StructureDefinition/cofe-medicationsadministered-medicationstatement-1"]},"extension":[{"url":"http://fhir.nhs.net/StructureDefinition/extension-cofe-administration-unit-code-1","valueCodeableConcept":{"coding":[{"system":"http://snomed.info/sct","code":"385220007","display":"Injection suspension"}]}}],"identifier":[{"value":"150d2e1b-93ce-425b-b04b-381fb0c5c9f7"}],"patient":{"reference":"Patient/31686b67-9f20-4644-9a54-193d2f91de57","display":"Diane Hembury"},"status":"completed","reasonForUseCodeableConcept":{"coding":[{"system":"http://snomed.info/sct","code":"300895004","display":"Anxiety attack"}]},"effectivePeriod":{"start":"2015-02-12","end":"2015-02-03"},"note":"To be administered as a Just-in-case medication. Brand3","medicationCodeableConcept":{"coding":[{"system":"http://snomed.info/sct","code":"22709211000001102","display":"Midazolam 10mg/10ml inj pre-filled syringes"}]},"dosage":[{"text":"Midazolam 10mg intramuscular injection of Brand3, 3 times maximum","route":{"coding":[{"system":"http://snomed.info/sct","code":"78421000","display":"Intramuscular route"}]}}]}},{"resource":{"resourceType":"MedicationStatement","id":"6c85ed8c-6df0-44db-93df-197669636896","meta":{"profile":["http://fhir.nhs.net/StructureDefinition/cofe-medicationsadministered-medicationstatement-1"]},"extension":[{"url":"http://fhir.nhs.net/StructureDefinition/extension-cofe-administration-unit-code-1","valueCodeableConcept":{"coding":[{"system":"http://snomed.info/sct","code":"385188006","display":"Rectal suspension"}]}}],"identifier":[{"value":"6c79da98-c92e-4dea-9b26-349924a6bbcd"}],"patient":{"reference":"Patient/31686b67-9f20-4644-9a54-193d2f91de57","display":"Diane Hembury"},"status":"completed","reasonForUseCodeableConcept":{"coding":[{"system":"http://snomed.info/sct","code":"91175000","display":"Seizure"}]},"effectivePeriod":{"start":"2015-02-12","end":"2016-02-11"},"note":"To be administered as a Just-in-case medication. Brand4","medicationCodeableConcept":{"coding":[{"system":"http://snomed.info/sct","code":"323073009","display":"Diazepam 5mg/2.5ml rectal solution tube"}]},"dosage":[{"text":"Diazepam by rectal route maximum 20 times","route":{"coding":[{"system":"http://snomed.info/sct","code":"37161004","display":"Rectal route"}]}}]}},{"resource":{"resourceType":"AllergyIntolerance","id":"97f0402c-ecf2-4d41-aa56-e6028f097081","meta":{"profile":["http://fhir.nhs.net/StructureDefinition/cofe-allergicoradversereactions-allergyintolerence-1"]},"identifier":[{"value":"c01c706a-ae0b-4910-b751-fc3f3ec5197c"}],"patient":{"reference":"Patient/31686b67-9f20-4644-9a54-193d2f91de57","display":"Diane Hembury"},"substance":{"text":"Sticking plaster"},"status":"confirmed","reaction":[{"manifestation":[{"text":"Contact dermatitis caused by chemical"}]}]}},{"resource":{"resourceType":"AllergyIntolerance","id":"caccc801-17a9-4c65-948a-defa33f4ae90","meta":{"profile":["http://fhir.nhs.net/StructureDefinition/cofe-allergicoradversereactions-allergyintolerence-1"]},"identifier":[{"value":"8086b754-3399-4e3e-ae83-8ceff4bbdc76"}],"patient":{"reference":"Patient/31686b67-9f20-4644-9a54-193d2f91de57","display":"Diane Hembury"},"substance":{"text":"Penicillin"},"status":"confirmed","reaction":[{"manifestation":[{"text":"Penicillin adverse reaction"}]}]}},{"resource":{"resourceType":"AllergyIntolerance","id":"f81fe70b-53e4-45fc-ad0d-d428a77468be","meta":{"profile":["http://fhir.nhs.net/StructureDefinition/cofe-allergicoradversereactions-allergyintolerence-1"]},"extension":[{"url":"http://fhir.nhs.net/StructureDefinition/extension-cofe-probability-of-recurrence-1","valueString":"Almost certain probability of recurrence"}],"identifier":[{"value":"bbccd8c6-6bca-47ca-b89f-c76650ca1420"}],"onset":"2016-08-31","recordedDate":"2016-09-30","patient":{"reference":"Patient/31686b67-9f20-4644-9a54-193d2f91de57","display":"Diane Hembury"},"substance":{"coding":[{"system":"http://snomed.info/sct","code":"3563811000001107","display":"Lanolin oil"}]},"status":"confirmed","type":"allergy","note":{"text":"Proven by prick test"},"reaction":[{"certainty":"likely","manifestation":[{"coding":[{"system":"http://snomed.info/sct","code":"277257008","display":"supraglottic swelling"}]}],"severity":"moderate","note":{"text":"Patient inhaled lanolin oil from new jumper on first wear."}}]}},{"resource":{"resourceType":"AllergyIntolerance","id":"c33db1ed-17c1-493c-ab85-b641302b3f58","meta":{"profile":["http://fhir.nhs.net/StructureDefinition/cofe-allergicoradversereactions-allergyintolerence-1"]},"extension":[{"url":"http://fhir.nhs.net/StructureDefinition/extension-cofe-probability-of-recurrence-1","valueString":"Almost certain probability of recurrence"}],"identifier":[{"value":"2c8c9c6e-9014-4a4e-8f00-e05569e9e7ea"}],"recordedDate":"2016-09-26","patient":{"reference":"Patient/31686b67-9f20-4644-9a54-193d2f91de57","display":"Diane Hembury"},"substance":{"text":"Cat dander"},"status":"confirmed","type":"allergy","note":{"text":"Experienced since childhood, Confirmed by challenge test"},"reaction":[{"certainty":"confirmed","manifestation":[{"text":"Uncontrollable sneezing"}],"severity":"severe","note":{"text":"Patient has recently purchased a cat"}}]}},{"resource":{"resourceType":"AllergyIntolerance","id":"7f09f0c8-21aa-431f-a961-88c232b6cae3","meta":{"profile":["http://fhir.nhs.net/StructureDefinition/cofe-allergicoradversereactions-allergyintolerence-1"]},"identifier":[{"value":"903aff03-ca7c-4b8d-ad5d-f40cd01e8c14"}],"patient":{"reference":"Patient/31686b67-9f20-4644-9a54-193d2f91de57","display":"Diane Hembury"},"substance":{"text":"Midazolam 10mg/5ml oral solution"},"status":"confirmed","reaction":[{"manifestation":[{"text":"Mazindol adverse reaction"}]}]}},{"resource":{"resourceType":"AllergyIntolerance","id":"2d79d6c9-dbe2-4455-8baa-da3bba456616","meta":{"profile":["http://fhir.nhs.net/StructureDefinition/cofe-allergicoradversereactions-allergyintolerence-1"]},"identifier":[{"value":"e5b750b4-a407-4871-9792-eb164cab2ddc"}],"recordedDate":"2016-05-18","patient":{"reference":"Patient/31686b67-9f20-4644-9a54-193d2f91de57","display":"Diane Hembury"},"substance":{"coding":[{"system":"http://snomed.info/sct","code":"387458008","display":"Aspirin"}]},"status":"confirmed"}},{"resource":{"resourceType":"Flag","id":"1df994ec-ce2b-462e-9488-c3c977fe76cd","meta":{"profile":["http://fhir.nhs.net/StructureDefinition/cofe-risk-flag-1"]},"identifier":[{"value":"0965612e-110c-49ef-8ea9-b767efa54b82"}],"category":{"coding":[{"system":"http://fhir.nhs.net/ValueSet/flag-category-1)","code":"414382000","display":"Healthcare Professional at risk"}]},"status":"active","period":{"start":"2016-03-02"},"subject":{"reference":"Patient/31686b67-9f20-4644-9a54-193d2f91de57","display":"Diane Hembury"},"author":{"reference":"Practitioner/924ad2f1-63dc-40cf-9f54-8da0fa3ba096"},"code":{"coding":[{"system":"http://snomed.info/sct","code":"924361000000108","display":"Registered with violent patient scheme"}],"text":"Patient has shown violent acts towards others"}}},{"resource":{"resourceType":"Flag","id":"b6e9e9ce-4e70-4388-8846-58ee39707f00","meta":{"profile":["http://fhir.nhs.net/StructureDefinition/cofe-risk-flag-1"]},"identifier":[{"value":"0965612e-110c-49ef-8ea9-b767efa54b82"}],"category":{"coding":[{"system":"http://fhir.nhs.net/ValueSet/flag-category-1)","code":"222701000000104","display":"Risk to patient"}]},"status":"active","period":{"start":"2016-03-02"},"subject":{"reference":"Patient/31686b67-9f20-4644-9a54-193d2f91de57","display":"Diane Hembury"},"author":{"reference":"Practitioner/924ad2f1-63dc-40cf-9f54-8da0fa3ba096"},"code":{"coding":[{"system":"http://snomed.info/sct","code":"755921000000105","display":"Risk to health associated with overweight and obesity, at high risk"}],"text":"Patient has low self-esteem."}}},{"resource":{"resourceType":"Observation","id":"ccfd85b9-5b5e-44f7-a8d4-500b7b0864bd","meta":{"profile":["http://fhir.nhs.net/StructureDefinition/cofe-adtrt-observation-1"]},"identifier":[{"value":"320d13d6-db91-4d51-a3a4-5185b1c9c807"}],"status":"final","code":{"coding":[{"system":"http://fhir.nhs.net/ValueSet/eol-cda-observation-type-1","code":"EOLADP","display":"EOL Patient Advance Decision to Refuse Treatment"}]},"subject":{"reference":"Patient/31686b67-9f20-4644-9a54-193d2f91de57","display":"Diane Hembury"},"effectiveDateTime":"2016-01-02T08:39:16+00:00","performer":[{"reference":"Practitioner/78d7ac3f-17a4-419a-964f-84148c9eef94","display":"Dr. Mandy Shaw"}],"valueCodeableConcept":{"coding":[{"system":"http://fhir.nhs.net/ValueSet/ADTRT-snct-1","code":"816301000000100","display":"Has advance decision to refuse treatment (Mental Capacity Act 2005)"}]},"component":[{"code":{"coding":[{"system":"http://fhir.nhs.net/ValueSet/eol-cda-observation-type-1","code":"EOLADL","display":"EOL Patient Advance Decision to Refuse Treatment Docs Location"}]},"valueString":"EOL ADRT document in top desk drawer in the patient's living room"},{"code":{"coding":[{"system":"http://fhir.nhs.net/ValueSet/eol-cda-observation-type-1","code":"EOLADS","display":"EOL Patient Advance Decision to Refuse Treatment Discussed"}]},"valueCodeableConcept":{"coding":[{"system":"http://snomed.info/sct","code":"820621000000107","display":"Has involved healthcare professional in discussion about advance decision to refuse treatment (Mental Capacity Act 2005)"}]}}]}},{"resource":{"resourceType":"Observation","id":"bc14a26f-beab-4fb7-b34b-9b5f1b634b3c","meta":{"profile":["http://fhir.nhs.net/StructureDefinition/cofe-adtrt-observation-1"]},"identifier":[{"value":"320d13d6-db91-4d51-a3a4-5185b1c9c807"}],"status":"final","code":{"coding":[{"system":"http://fhir.nhs.net/ValueSet/cda-observation-type-1","code":"SGO","display":"Safeguarding Observation"}]},"subject":{"reference":"Patient/31686b67-9f20-4644-9a54-193d2f91de57","display":"Diane Hembury"},"effectivePeriod":{"start":"2016-01-02T08:39:16+00:00"},"performer":[{"reference":"Practitioner/78d7ac3f-17a4-419a-964f-84148c9eef94","display":"Dr. Mandy Shaw"}],"valueCodeableConcept":{"coding":[{"system":"http://snomed.info/sct","code":"1053881000000102","display":"Safeguarding intervention"}],"text":"Safeguarding adults protection plan agreed."}}},{"resource":{"resourceType":"Observation","id":"ff15fe40-2251-4f79-a5aa-93239712df86","meta":{"profile":["http://fhir.nhs.net/StructureDefinition/cofe-lastingpowerofattorney-observation-1"]},"identifier":[{"value":"4d70d576-05d4-4beb-b691-f25cfbce1f15"}],"status":"final","code":{"coding":[{"system":"http://fhir.nhs.net/ValueSet/eol-cda-observation-type-1","code":"EOLLPA","display":"EOL Authority to Lasting Power of Attorney"}]},"subject":{"reference":"Patient/31686b67-9f20-4644-9a54-193d2f91de57","display":"Diane Hembury"},"effectivePeriod":{"start":"2016-01-02"},"performer":[{"reference":"RelatedPerson/1ed3fa7b-0f20-4ffd-8d55-8eb4994a716a"}],"valueCodeableConcept":{"coding":[{"system":"http://fhir.nhs.net/ValueSet/LPOA-snct-1","code":"816381000000105","display":"Has appointed person with personal welfare lasting power of attorney with authority for life sustaining decisions (Mental Capacity Act 2005)"}]}}},{"resource":{"resourceType":"Observation","id":"f6231c77-fc41-4e2a-bf18-08e22b450a22","meta":{"profile":["http://fhir.nhs.net/StructureDefinition/cofe-housing-observation-1"]},"identifier":[{"value":"b663ac06-3965-4893-98a3-7325b8146c34"}],"status":"final","code":{"coding":[{"system":"http://fhir.nhs.net/ValueSet/cda-observation-type-1","code":"HRF","display":"Housing Related Finding"}]},"subject":{"reference":"Patient/31686b67-9f20-4644-9a54-193d2f91de57","display":"Diane Hembury"},"effectivePeriod":{"start":"2016-03-02"},"valueCodeableConcept":{"coding":[{"system":"http://fhir.nhs.net/ValueSet/housing-snct-1","code":"408821002","display":"Lives with partner"}]}}},{"resource":{"resourceType":"Observation","id":"33dfe095-3ba3-4a45-92a7-cf2c135773a3","meta":{"profile":["http://fhir.nhs.net/StructureDefinition/cofe-mobility-observation-1"]},"identifier":[{"value":"fec3792b-6175-4d17-897f-c7fd35929eb1"}],"status":"final","code":{"coding":[{"system":"http://fhir.nhs.net/ValueSet/cda-observation-type-1","code":"MOD","display":"Mobility or Disability Observations"}]},"subject":{"reference":"Patient/31686b67-9f20-4644-9a54-193d2f91de57","display":"Diane Hembury"},"effectivePeriod":{"start":"2016-01-02T08:39:16+00:00"},"performer":[{"reference":"Practitioner/78d7ac3f-17a4-419a-964f-84148c9eef94","display":"Dr. Mandy Shaw"}],"valueCodeableConcept":{"coding":[{"system":"http://snomed.info/sct","code":"784661000000101","display":"Does not drive a vehicle"}],"text":"Disqualified from driving due to excess alcohol"}}},{"resource":{"resourceType":"Observation","id":"9322a1b5-5264-47ee-a0b6-e30fafa7f1ac","meta":{"profile":["http://fhir.nhs.net/StructureDefinition/cofe-crisiscareplan-observation-1"]},"identifier":[{"value":"e89dfe60-7d8f-4383-869b-f6b31bd71efe"}],"status":"final","category":{"coding":[{"system":"http://fhir.nhs.net/ValueSet/crisiscareplan-observation-1","code":"CCO","display":"Crisis Care Observation"}]},"code":{"coding":[{"system":"http://fhir.nhs.net/ValueSet/crisiscareplan-observation-1","code":"ICOPC","display":"In Case of Pain Crises"}]},"subject":{"reference":"Patient/31686b67-9f20-4644-9a54-193d2f91de57","display":"Diane Hembury"},"effectivePeriod":{"start":"2016-01-02"},"performer":[{"reference":"Practitioner/78d7ac3f-17a4-419a-964f-84148c9eef94","display":"Dr. Mandy Shaw"}],"valueCodeableConcept":{"text":"Administer Ibuprofen, two 200mg tablets every four to six hours"}}},{"resource":{"resourceType":"CarePlan","id":"fea7bf33-3bc1-4eb7-856c-badb3a92135a","meta":{"profile":["http://fhir.nhs.net/StructureDefinition/cofe-endoflifecareplan-careplan-1"]},"extension":[{"url":"http://fhir.nhs.net/StructureDefinition/extension-cofe-planned-review-date-1","valueDate":"2016-05-02"}],"identifier":[{"value":"11a98de8-4c44-424c-bb6d-0049c4d2b777"}],"subject":{"reference":"Patient/31686b67-9f20-4644-9a54-193d2f91de57","display":"Diane Hembury"},"status":"active","period":{"start":"2016-03-02"},"category":[{"coding":[{"system":"http://fhir.nhs.net/ValueSet/eol-cda-observation-type-1","code":"EOLCP","display":"EOL Care Plan"}]}],"note":{"text":"Full, active treatment plan, including in acute hospital setting"}}},{"resource":{"resourceType":"QuestionnaireResponse","id":"9c7eb664-d257-4250-aee2-20ad202919e8","meta":{"profile":["http://fhir.nhs.net/StructureDefinition/cofe-dnacprdecision-questionnaireresponse-1"]},"identifier":{"value":"fd60ffd5-3e41-4b68-aa62-37f5407d8c04"},"status":"completed","subject":{"reference":"Patient/31686b67-9f20-4644-9a54-193d2f91de57","display":"Diane Hembury"},"author":{"reference":"Practitioner/78d7ac3f-17a4-419a-964f-84148c9eef94","display":"Dr. Mandy Shaw"},"authored":"2016-03-02","group":{"question":[{"linkId":"EOLDCR","text":"Should cardio-pulmonary resuscitation commence?","answer":[{"valueCoding":{"system":"http://fhir.nhs.net/ValueSet/cpr-decision-response-1","code":"450476008","display":"Not for cardiopulmonary resuscitation"}}]},{"linkId":"EOLDCR","text":"What date was the DNA CPR decision made?","answer":[{"valueDate":"2016-03-02"}]},{"linkId":"EOLDDL","text":"Where is the DNACPR documentation located?","answer":[{"valueString":"DNACPR document in top desk drawer in the patient's living room"}]},{"linkId":"EOLDRD","text":"What date should the DNA CPR decision be reviewed?","answer":[{"valueDate":"2016-06-02"}]},{"linkId":"921551000000101","text":"Has the DNA CPR decision been discussed with the patient's family/carer?","answer":[{"valueCoding":{"system":"http://fhir.nhs.net/ValueSet/cpr-decision-discussion-family-carer-response-1","code":"975291000000108","display":"Family member informed of cardiopulmonary resuscitation clinical decision"}}]}]}}},{"resource":{"resourceType":"Procedure","id":"046fcf2d-80b0-4912-a50c-dd1293dbbed8","meta":{"profile":["http://fhir.nhs.net/StructureDefinition/cofe-issueofanticipatorymeds-procedure-1"]},"extension":[{"url":"http://fhir.nhs.net/StructureDefinition/extension-cofe-anticipatorymedslocation-1","valueString":"On shelf in front room"}],"subject":{"reference":"Patient/31686b67-9f20-4644-9a54-193d2f91de57","display":"Diane Hembury"},"status":"completed","code":{"coding":[{"system":"http://fhir.nhs.net/ValueSet/issue-of-anticipatory-meds-1","code":"76201000000102","display":"Issue of palliative care anticipatory medication box"}]},"performedDateTime":"2016-01-02"}},{"resource":{"resourceType":"Procedure","id":"046fcf2d-80b0-4912-a50c-dd1293dbbed8","meta":{"profile":["http://fhir.nhs.net/StructureDefinition/cofe-issueofanticipatorymeds-procedure-1"]},"extension":[{"url":"http://fhir.nhs.net/StructureDefinition/extension-cofe-anticipatorymedslocation-1","valueString":"On shelf in front room"}],"subject":{"reference":"Patient/31686b67-9f20-4644-9a54-193d2f91de57","display":"Diane Hembury"},"status":"completed","code":{"coding":[{"system":"http://fhir.nhs.net/ValueSet/issue-of-anticipatory-meds-1","code":"76201000000102","display":"Issue of palliative care anticipatory medication box"}]},"performedDateTime":"2016-01-02"}},{"resource":{"resourceType":"Practitioner","id":"924ad2f1-63dc-40cf-9f54-8da0fa3ba096","meta":{"profile":["http://fhir.nhs.net/StructureDefinition/cofe-practitioner-1"]},"identifier":[{"system":"http://fhir.nhs.net/Id/sds-user-id","value":"G13579135"},{"system":"http://fhir.nhs.net/Id/sds-role-profile-id","value":"NR2040"}],"name":{"family":["Shaw"],"given":["Mandy"]},"practitionerRole":[{"managingOrganization":{"reference":"Organization/1474506e-609d-412e-952b-4bc74d769038","display":"The Royal Marsden Hospital (London)"},"role":{"coding":[{"system":"http://fhir.nhs.net/ValueSet/sds-job-role-name-1","code":"NR2040","display":"Palliative Care Physician"}]}}]}},{"resource":{"resourceType":"Organization","id":"1474506e-609d-412e-952b-4bc74d769038","meta":{"profile":["http://fhir.nhs.net/StructureDefinition/cofe-organization-ods-1"]},"identifier":[{"system":"http://fhir.nhs.net/Id/ods-organization-code","value":"RPY01"}],"name":"The Royal Marsden Hospital (London)"}},{"resource":{"resourceType":"Organization","id":"575399c4-b48a-4faf-83b5-fa8a6474a7c6","meta":{"profile":["http://fhir.nhs.net/StructureDefinition/cofe-organization-ods-1"]},"identifier":[{"system":"http://fhir.nhs.net/Id/ods-organization-code","value":"RYCF2"}],"name":"NHS 111 Service"}},{"resource":{"resourceType":"Practitioner","id":"e16e1d5a-17a9-40f4-a5b8-3d376a99fd38","meta":{"profile":["http://fhir.nhs.net/StructureDefinition/cofe-practitioner-1"]},"extension":[{"url":"http://fhir.nhs.net/StructureDefinition/extension-cofe-participant-function-code-1","valueCodeableConcept":{"coding":[{"system":"http://snomed.info/sct","code":"24841000000106","display":"Usual general practitioner"}]}},{"url":"http://fhir.nhs.net/StructureDefinition/extension-cofe-participant-type-1","valueCodeableConcept":{"coding":[{"system":"http://fhir.nhs.net/ValueSet/participant-type-1","code":"NOT","display":"Ugent notification contact"}]}}],"identifier":[{"system":"http://fhir.nhs.net/Id/sds-user-id","value":"G13579135"}],"name":{"use":"official","family":["SINGARAVELOU"],"given":["B"],"prefix":["Dr"]},"telecom":[{"system":"phone","value":"01234567890"},{"system":"phone","value":"02468024680"}],"address":[{"line":["36 DEWEY ROAD"],"postalCode":"RM10 8AR"}],"practitionerRole":[{"managingOrganization":{"reference":"Organization/7b551079-9a05-4796-bf57-dc66b5c80585","display":"Berwick Surgery"},"role":{"coding":[{"system":"http://snomed.info/sct","code":"62247001","display":"General Practitioner"}]}}]}},{"resource":{"resourceType":"Practitioner","id":"4c096051-7f73-449f-b552-3b4de5825c77","meta":{"profile":["http://fhir.nhs.net/StructureDefinition/cofe-practitioner-1"]},"extension":[{"url":"http://fhir.nhs.net/StructureDefinition/extension-cofe-participant-type-1","valueCodeableConcept":{"coding":[{"system":"http://fhir.nhs.net/ValueSet/participant-type-1","code":"NOT","display":"Ugent notification contact"}]}}],"name":{"use":"official","family":["Nurse"],"given":["E"],"prefix":["Ms"]},"telecom":[{"system":"phone","value":"13579123456","use":"work"},{"system":"phone","value":"07891124567","use":"mobile"}],"practitionerRole":[{"managingOrganization":{"reference":"Organization/6549ec2d-6c5e-4806-ad96-c3c80d4f12d6"},"role":{"coding":[{"system":"http://snomed.info/sct","code":"158997000","display":"District nurse"}]}}]}},{"resource":{"resourceType":"Practitioner","id":"d47e67c6-5698-4638-9c5b-a29d13738249","meta":{"profile":["http://fhir.nhs.net/StructureDefinition/cofe-practitioner-1"]},"name":{"use":"official","family":["Community"],"given":["B"],"prefix":["Dr"]},"telecom":[{"system":"phone","value":"01814567654","use":"work"},{"system":"phone","value":"09876543210","use":"mobile"}],"practitionerRole":[{"managingOrganization":{"reference":"Organization/c94bdec6-14d7-4e88-961a-2f1ba45f6aff","display":"Brent Community Health"}}]}},{"resource":{"resourceType":"Practitioner","id":"2ceb2362-1891-42fc-aacf-a4edd554468a","meta":{"profile":["http://fhir.nhs.net/StructureDefinition/cofe-practitioner-1"]},"name":{"use":"official","family":["Palliative"],"given":["G"],"prefix":["Mrs"]},"telecom":[{"system":"phone","value":"01213456789","use":"work"},{"system":"phone","value":"07890123456","use":"mobile"}],"practitionerRole":[{"managingOrganization":{"reference":"Organization/c94bdec6-14d7-4e88-961a-2f1ba45f6aff","display":"Ealing Community Team"}}]}},{"resource":{"resourceType":"Practitioner","id":"a69a7afe-fee3-411f-bd1a-14bc71174c31","meta":{"profile":["http://fhir.nhs.net/StructureDefinition/cofe-practitioner-1"]},"name":{"use":"official","family":["Hospice"],"given":["A"],"prefix":["Dr"]},"telecom":[{"system":"phone","value":"01213456789","use":"work"},{"system":"phone","value":"07890123456","use":"mobile"}],"practitionerRole":[{"managingOrganization":{"reference":"Organization/51e111cc-dc41-40ba-8056-dde95a906a9a","display":"Acute care hospice service"}}]}},{"resource":{"resourceType":"Practitioner","id":"eaad094c-58e9-448e-bf23-618912054849","meta":{"profile":["http://fhir.nhs.net/StructureDefinition/cofe-practitioner-1"]},"name":{"use":"official","family":["Hospice"],"given":["A"],"prefix":["Dr"]},"telecom":[{"system":"phone","value":"01213456789","use":"work"},{"system":"phone","value":"09876543210","use":"mobile"}],"practitionerRole":[{"managingOrganization":{"reference":"Organization/feaf1e71-e422-4102-83bb-d00e9a6d44f0","display":"St Luke's Hospice"}}]}},{"resource":{"resourceType":"Practitioner","id":"7291998c-9c2f-48ae-a9b7-58a0772bedf4","meta":{"profile":["http://fhir.nhs.net/StructureDefinition/cofe-practitioner-1"]},"name":{"use":"official","family":["Consultant"],"given":["F"],"prefix":["Dr"]},"telecom":[{"system":"phone","value":"01234543210","use":"work"},{"system":"phone","value":"01234543212","use":"mobile"}],"practitionerRole":[{"managingOrganization":{"reference":"Organization/1f0f5554-c375-4d6a-9941-ba42caeccb0a","display":"Barnet and Chase Farm"}}]}},{"resource":{"resourceType":"Practitioner","id":"f1b6593e-25f4-4b2f-b750-009037c4d731","meta":{"profile":["http://fhir.nhs.net/StructureDefinition/cofe-practitioner-1"]},"name":{"use":"official","family":["Riley"],"given":["G"],"prefix":["Dr"]},"telecom":[{"system":"phone","value":"02081234567","use":"work"},{"system":"phone","value":"02071235789","use":"work"}],"practitionerRole":[{"managingOrganization":{"reference":"Organization/1474506e-609d-412e-952b-4bc74d769038","display":"Royal Marsden"},"role":{"coding":[{"system":"http://snomed.info/sct","code":"309390008","display":"Hospital consultant"}]}}]}},{"resource":{"resourceType":"Practitioner","id":"d17dc85d-87bc-43a2-9fc3-12ff89870bd6","meta":{"profile":["http://fhir.nhs.net/StructureDefinition/cofe-practitioner-1"]},"name":{"use":"official","family":["Other"],"given":["H"],"prefix":["Other"]},"telecom":[{"system":"phone","value":"02034567531","use":"work"},{"system":"phone","value":"07891124352","use":"mobile"}],"practitionerRole":[{"managingOrganization":{"reference":"Organization/525842de-2714-4136-b44d-ba027d4a21f0","display":"Care Team"}}]}},{"resource":{"resourceType":"Practitioner","id":"19a32386-dea7-4d78-9286-9bd8479a9640","meta":{"profile":["http://fhir.nhs.net/StructureDefinition/cofe-practitioner-1"]},"name":{"use":"official"},"telecom":[{"system":"phone","value":"01234567890","use":"work"},{"system":"phone","value":"07890123456","use":"mobile"}],"practitionerRole":[{"managingOrganization":{"reference":"Organization/7b551079-9a05-4796-bf57-dc66b5c80585","display":"Berwick Surgery"}}]}},{"resource":{"resourceType":"Practitioner","id":"bacfadf4-d333-4199-9005-c1646dd5286f","meta":{"profile":["http://fhir.nhs.net/StructureDefinition/cofe-practitioner-1"]},"name":{"use":"official"},"telecom":[{"system":"phone","value":"02468024680","use":"work"},{"system":"phone","value":"07654432109","use":"mobile"}],"practitionerRole":[{"managingOrganization":{"reference":"Organization/7b551079-9a05-4796-bf57-dc66b5c80585","display":"Berwick Surgery"}}]}},{"resource":{"resourceType":"Practitioner","id":"bacfadf4-d333-4199-9005-c1646dd5286f","meta":{"profile":["http://fhir.nhs.net/StructureDefinition/cofe-practitioner-1"]},"telecom":[{"system":"phone","value":"01234567890","use":"work"},{"system":"phone","value":"01357135790","use":"mobile"}],"practitionerRole":[{"managingOrganization":{"reference":"Organization/7b652127-0840-47c0-801e-cf29ef4ef190","display":"London Borough of Bromley"}}]}},{"resource":{"resourceType":"Practitioner","id":"80a64935-6782-47bd-8cc0-05d2bf0222f8","meta":{"profile":["http://fhir.nhs.net/StructureDefinition/cofe-practitioner-1"]},"name":{"use":"official","family":["Care-Contact"],"given":["A"],"prefix":["Ms"]},"telecom":[{"system":"phone","value":"12345789001","use":"work"},{"system":"phone","value":"09876654321","use":"mobile"}],"practitionerRole":[{"managingOrganization":{"reference":"Organization/5584b63c-9a7d-4fce-854f-a10ed87218fe","display":"Care Contact"},"role":{"coding":[{"system":"http://snomed.info/sct","code":"184152007","display":"Care Assistant"}]}}]}},{"resource":{"resourceType":"RelatedPerson","id":"1ae5a092-880b-4fe8-af9a-145124a1357d","meta":{"profile":["http://fhir.nhs.net/StructureDefinition/cofe-relatedperson-1"]},"extension":[{"url":"http://fhir.nhs.net/StructureDefinition/extension-cofe-participant-function-code-1","valueCodeableConcept":{"coding":[{"system":"http://snomed.info/sct","code":"184142008","display":"Patient's next of kin"}]}},{"url":"http://fhir.nhs.net/StructureDefinition/extension-cofe-participant-type-1","valueCodeableConcept":{"coding":[{"system":"http://fhir.nhs.net/ValueSet/participant-type-1","code":"NOT","display":"Ugent notification contact"}]}}],"identifier":[{"system":"2.16.840.1.113883.2.1.3.2.4.15","value":"184142008"}],"patient":{"reference":"Patient/31686b67-9f20-4644-9a54-193d2f91de57"},"relationship":{"coding":[{"system":"http://fhir.nhs.net/ValueSet/cda-person-relationship-type-1","code":"98","display":"Not Known"}]},"name":{"use":"official","family":["Sudden"],"given":["Sam"],"prefix":["Mr"]},"telecom":[{"value":"01234567890","use":"home"}],"address":[{"use":"home","line":["1 James Street"],"city":"Govford"}]}},{"resource":{"resourceType":"RelatedPerson","id":"5ea1331b-c578-48cd-a596-13a6d4ebd06a","meta":{"profile":["http://fhir.nhs.net/StructureDefinition/cofe-relatedperson-1"]},"extension":[{"url":"http://fhir.nhs.net/StructureDefinition/extension-cofe-participant-function-code-1","valueCodeableConcept":{"coding":[{"system":"http://snomed.info/sct","code":"184142008","display":"Patient's next of kin"}]}},{"url":"http://fhir.nhs.net/StructureDefinition/extension-cofe-participant-type-1","valueCodeableConcept":{"coding":[{"system":"http://fhir.nhs.net/ValueSet/participant-type-1","code":"NOT","display":"Ugent notification contact"}]}}],"identifier":[{"system":"2.16.840.1.113883.2.1.3.2.4.15","value":"184142008"}],"patient":{"reference":"Patient/31686b67-9f20-4644-9a54-193d2f91de57"},"relationship":{"coding":[{"system":"http://snomed.info/sct","code":"184142008","display":"patient's next of kin"}]},"name":{"use":"official","family":["Sudden"],"given":["Samanatha"],"prefix":["Mrs"]},"telecom":[{"value":"02468023456","use":"home"}],"address":[{"use":"home","line":["2 John Street"],"city":"Govford","postalCode":"GV12 5RE"}]}},{"resource":{"resourceType":"RelatedPerson","id":"f41c7c4c-1153-4626-bfa6-0c6a81aaac43","meta":{"profile":["http://fhir.nhs.net/StructureDefinition/cofe-relatedperson-1"]},"extension":[{"url":"http://fhir.nhs.net/StructureDefinition/extension-cofe-participant-function-code-1","valueCodeableConcept":{"coding":[{"system":"http://snomed.info/sct","code":"133932002","display":"Caregiver"}]}},{"url":"http://fhir.nhs.net/StructureDefinition/extension-cofe-participant-type-1","valueCodeableConcept":{"coding":[{"system":"http://fhir.nhs.net/ValueSet/participant-type-1","code":"NOT","display":"Ugent notification contact"}]}}],"identifier":[{"system":"2.16.840.1.113883.2.1.3.2.4.15","value":"184142008"}],"patient":{"reference":"Patient/31686b67-9f20-4644-9a54-193d2f91de57"},"relationship":{"coding":[{"system":"http://fhir.nhs.net/ValueSet/cda-person-relationship-type-1","code":"22","display":"Wife"}]},"name":{"use":"official","family":["Bloggs"],"given":["Sarah"],"prefix":["Mrs"]},"telecom":[{"value":"01235680246","use":"home"}],"address":[{"use":"home","line":["321 Brighton Rock"],"city":"Gumford","district":"East Sussex"}]}},{"resource":{"resourceType":"RelatedPerson","id":"1f0d8c47-0712-4d1c-863a-b80f00ddb4ca","meta":{"profile":["http://fhir.nhs.net/StructureDefinition/cofe-relatedperson-1"]},"extension":[{"url":"http://fhir.nhs.net/StructureDefinition/extension-cofe-participant-function-code-1","valueCodeableConcept":{"coding":[{"system":"http://snomed.info/sct","code":"133932002","display":"Caregiver"}]}},{"url":"http://fhir.nhs.net/StructureDefinition/extension-cofe-participant-type-1","valueCodeableConcept":{"coding":[{"system":"http://fhir.nhs.net/ValueSet/participant-type-1","code":"NOT","display":"Ugent notification contact"}]}}],"identifier":[{"system":"2.16.840.1.113883.2.1.3.2.4.15","value":"184142008"}],"patient":{"reference":"Patient/31686b67-9f20-4644-9a54-193d2f91de57"},"relationship":{"coding":[{"system":"http://fhir.nhs.net/ValueSet/cda-person-relationship-type-1","code":"42","display":"Son"}]},"name":{"use":"official","family":["Bloggs"],"given":["John"],"prefix":["Mr"]},"telecom":[{"value":"09876543211","use":"mobile"}],"address":[{"use":"home","line":["123 Brighton Pier"],"city":"Gumford","district":"East Sussex"}]}},{"resource":{"resourceType":"RelatedPerson","id":"b871ba7b-d6bb-46bf-8f5b-12994f51fd65","meta":{"profile":["http://fhir.nhs.net/StructureDefinition/cofe-relatedperson-1"]},"extension":[{"url":"http://fhir.nhs.net/StructureDefinition/extension-cofe-participant-function-code-1","valueCodeableConcept":{"coding":[{"system":"2.16.840.1.113883.2.1.3.2.4.17.300","code":"03","display":"Health and Welfare Lasting Power of Attorney - with authority for life sustaining decisions"}]}},{"url":"http://fhir.nhs.net/StructureDefinition/extension-cofe-participant-type-1","valueCodeableConcept":{"coding":[{"system":"http://fhir.nhs.net/ValueSet/participant-type-1","code":"NOT","display":"Ugent notification contact"}]}}],"identifier":[{"system":"2.16.840.1.113883.2.1.3.2.4.15","value":"184142008"}],"patient":{"reference":"Patient/31686b67-9f20-4644-9a54-193d2f91de57"},"relationship":{"coding":[{"system":"http://fhir.nhs.net/ValueSet/cda-person-relationship-type-1","code":"99","display":"Not Known"}]},"name":{"use":"official","family":["Balidon"],"given":["Joseph"],"prefix":["Mr"]},"telecom":[{"value":"07891124321","use":"mobile"}]}},{"resource":{"resourceType":"RelatedPerson","id":"0d4ddfba-b36a-4435-8310-600be295cab9","meta":{"profile":["http://fhir.nhs.net/StructureDefinition/cofe-relatedperson-1"]},"extension":[{"url":"http://fhir.nhs.net/StructureDefinition/extension-cofe-participant-function-code-1","valueCodeableConcept":{"coding":[{"system":"2.16.840.1.113883.2.1.3.2.4.17.300","code":"02","display":"Health and Welfare Lasting Power of Attorney - without authority for life sustaining decisions"}]}},{"url":"http://fhir.nhs.net/StructureDefinition/extension-cofe-participant-type-1","valueCodeableConcept":{"coding":[{"system":"http://fhir.nhs.net/ValueSet/participant-type-1","code":"NOT","display":"Ugent notification contact"}]}}],"identifier":[{"system":"2.16.840.1.113883.2.1.3.2.4.15","value":"184142008"}],"patient":{"reference":"Patient/31686b67-9f20-4644-9a54-193d2f91de57"},"relationship":{"coding":[{"system":"http://fhir.nhs.net/ValueSet/cda-person-relationship-type-1","code":"98","display":"Not Known"}]},"name":{"use":"official","family":["Bloggs"],"given":["Peter"],"prefix":["Mr"]},"telecom":[{"value":"01225316145","use":"home"}]}},{"resource":{"resourceType":"RelatedPerson","id":"892fa432-9a51-4736-9dcd-02ec3107f872","meta":{"profile":["http://fhir.nhs.net/StructureDefinition/cofe-relatedperson-1"]},"extension":[{"url":"http://fhir.nhs.net/StructureDefinition/extension-cofe-participant-function-code-1","valueCodeableConcept":{"coding":[{"system":"2.16.840.1.113883.2.1.3.2.4.17.300","code":"01","display":"Lasting Power of Attorney - property and financial only"}]}},{"url":"http://fhir.nhs.net/StructureDefinition/extension-cofe-participant-type-1","valueCodeableConcept":{"coding":[{"system":"http://fhir.nhs.net/ValueSet/participant-type-1","code":"NOT","display":"Ugent notification contact"}]}}],"identifier":[{"system":"2.16.840.1.113883.2.1.3.2.4.15","value":"184142008"}],"patient":{"reference":"Patient/31686b67-9f20-4644-9a54-193d2f91de57"},"relationship":{"coding":[{"system":"http://fhir.nhs.net/ValueSet/cda-person-relationship-type-1","code":"22","display":"Wife"}]},"name":{"use":"official","family":["Bloggs"],"given":["Sarah"],"prefix":["Mrs"]},"telecom":[{"value":"01235680246","use":"home"}],"address":[{"use":"home","line":["321 Brighton Rock"],"city":"Gumford","district":"East Sussex"}]}},{"resource":{"resourceType":"Organization","id":"79600119-ebaf-4362-bb89-d473a33b1675","meta":{"profile":["http://fhir.nhs.net/StructureDefinition/cofe-provider-organization-1"]},"identifier":[{"system":"http://fhir.nhs.net/Id/ods-organization-code","value":"F84641"}],"type":{"coding":[{"system":"2.16.840.1.113883.2.1.3.2.4.17.289","code":"001","display":"GP Practice"}]},"name":"BIRCHDALE ROAD MEDICAL CENTRE","telecom":[{"system":"phone","value":"01234567890","use":"work"},{"system":"phone","value":"07890123456","use":"work"}],"address":[{"use":"work","line":["NEWHAM CCG"],"postalCode":"E7 8AR"}]}},{"resource":{"resourceType":"Organization","id":"6549ec2d-6c5e-4806-ad96-c3c80d4f12d6","meta":{"profile":["http://fhir.nhs.net/StructureDefinition/cofe-organization-ods-1"]},"identifier":[{"system":"http://fhir.nhs.net/Id/ods-organization-code","value":"89999"}],"name":"Bromley Healthcare"}},{"resource":{"resourceType":"Organization","id":"c94bdec6-14d7-4e88-961a-2f1ba45f6aff","meta":{"profile":["http://fhir.nhs.net/StructureDefinition/cofe-organization-ods-1"]},"identifier":[{"system":"http://fhir.nhs.net/Id/ods-organization-code","value":"89999"}],"name":"Brent Community Health"}},{"resource":{"resourceType":"Organization","id":"2ceb2362-1891-42fc-aacf-a4edd554468a","meta":{"profile":["http://fhir.nhs.net/StructureDefinition/cofe-organization-ods-1"]},"identifier":[{"system":"http://fhir.nhs.net/Id/ods-organization-code","value":"89999"}],"name":"Palliative care service"}},{"resource":{"resourceType":"Organization","id":"51e111cc-dc41-40ba-8056-dde95a906a9a","meta":{"profile":["http://fhir.nhs.net/StructureDefinition/cofe-organization-ods-1"]},"identifier":[{"system":"http://fhir.nhs.net/Id/ods-organization-code","value":"8A872"}],"name":"St Joseph's Hospice"}},{"resource":{"resourceType":"Organization","id":"feaf1e71-e422-4102-83bb-d00e9a6d44f0","meta":{"profile":["http://fhir.nhs.net/StructureDefinition/cofe-organization-ods-1"]},"identifier":[{"system":"http://fhir.nhs.net/Id/ods-organization-code","value":"8GA90"}],"name":"St Luke's Hospice"}},{"resource":{"resourceType":"Organization","id":"1f0f5554-c375-4d6a-9941-ba42caeccb0a","meta":{"profile":["http://fhir.nhs.net/StructureDefinition/cofe-organization-ods-1"]},"identifier":[{"system":"http://fhir.nhs.net/Id/ods-organization-code","value":"89999"}],"name":"Barnet and Chase Farm"}},{"resource":{"resourceType":"Organization","id":"1474506e-609d-412e-952b-4bc74d769038","meta":{"profile":["http://fhir.nhs.net/StructureDefinition/cofe-organization-ods-1"]},"identifier":[{"system":"http://fhir.nhs.net/Id/ods-organization-code","value":"89999"}],"name":"Royal Marsden"}},{"resource":{"resourceType":"Organization","id":"525842de-2714-4136-b44d-ba027d4a21f0","meta":{"profile":["http://fhir.nhs.net/StructureDefinition/cofe-organization-ods-1"]},"identifier":[{"system":"http://fhir.nhs.net/Id/ods-organization-code","value":"89999"}],"name":"Care Team"}},{"resource":{"resourceType":"Organization","id":"7b551079-9a05-4796-bf57-dc66b5c80585","meta":{"profile":["http://fhir.nhs.net/StructureDefinition/cofe-organization-ods-1"]},"identifier":[{"system":"http://fhir.nhs.net/Id/ods-organization-code","value":"F82621"}],"name":"Berwick Surgery"}},{"resource":{"resourceType":"Organization","id":"7b652127-0840-47c0-801e-cf29ef4ef190","meta":{"profile":["http://fhir.nhs.net/StructureDefinition/cofe-organization-ods-1"]},"identifier":[{"system":"http://fhir.nhs.net/Id/ods-organization-code","value":"89999"}],"name":"London Borough of Bromley"}},{"resource":{"resourceType":"Organization","id":"5584b63c-9a7d-4fce-854f-a10ed87218fe","meta":{"profile":["http://fhir.nhs.net/StructureDefinition/cofe-organization-ods-1"]},"identifier":[{"system":"http://fhir.nhs.net/Id/ods-organization-code","value":"89999"}],"name":"Care Contact"}}]}