<Flag xmlns="http://hl7.org/fhir"><id value="7cb73a48-090d-469a-a2b2-04f1e6b11ea3" /><meta><profile value="http://fhir.nhs.net/StructureDefinition/spine-ris-flag-1-0" /></meta><contained><Patient><id value="20daadee-26e1-4d6a-9e6a-7f4af9b58877" /><meta><profile value="http://fhir.nhs.net/StructureDefinition/spine-ris-patient-2-0" /></meta><identifier><system value="http://fhir.nhs.net/Id/nhs-number" /><value value="1234567890" /></identifier><birthDate value="2005-01-01" /><careProvider><reference value="#99600119-ebaf-4362-bb89-d473a33b1675" /></careProvider></Patient></contained><contained><Organization><id value="99600119-ebaf-4362-bb89-d473a33b1675" /><meta><profile value="http://fhir.nhs.net/StructureDefinition/spine-gp-organization-1-0" /></meta><identifier><system value="http://fhir.nhs.net/Id/ods-organization-code" /><value value="B86022" /></identifier><name value="GP WHITTINGTON PRACTICE" /></Organization></contained><status value="active" /><period><start value="2015-02-04" /></period><subject><reference value="#20daadee-26e1-4d6a-9e6a-7f4af9b58877" /></subject><code><coding><system value="http://fhir.nhs.net/ValueSet/risk-indicator-type-1-0" /><code value="FGM" /></coding></code></Flag>