<Bundle xmlns="http://hl7.org/fhir"><id value="13daadee-26e1-4d6a-9e6a-7f4af9b58877" /><meta><profile value="http://fhir.nhs.net/StructureDefinition/spine-message-bundle-1-0" /></meta><type value="message" /><entry><resource><MessageHeader><id value="29daadee-26e1-4d6a-9e6a-7f4af9b44444" /><meta><profile value="http://fhir.nhs.net/StructureDefinition/spine-request-messageheader-2-0" /></meta><timestamp value="2015-07-04T09:10:14+00:00" /><event><system value="http://fhir.nhs.net/ValueSet/message-event-2-0" /><code value="urn:nhs:names:services:clinicals-sync:FGMCreate_1_0" /></event><source><name value="FooBar NHS Trust" /><software value="FooBar Patient Manager" /><contact><system value="phone" /><value value="0207 444777" /></contact><endpoint value="urn:nhs:addressing:asid:047192794544" /></source><destination><name value="SPINE" /><endpoint value="urn:nhs:addressing:asid:990101234567" /></destination><author><reference value="Practitioner/41fe704c-18e5-11e5-b60b-1697f925ec7b" /></author><data><reference value="Flag/7cb73a48-090d-469a-a2b2-04f1e6b11ea3" /></data></MessageHeader></resource></entry><entry><resource><Flag><id value="7cb73a48-090d-469a-a2b2-04f1e6b11ea3" /><meta><profile value="http://fhir.nhs.net/StructureDefinition/spine-ris-flag-1-0" /></meta><contained><Patient><id value="20daadee-26e1-4d6a-9e6a-7f4af9b58877" /><meta><profile value="http://fhir.nhs.net/StructureDefinition/spine-ris-patient-2-0" /></meta><identifier><system value="http://fhir.nhs.net/Id/nhs-number" /><value value="1234567890" /></identifier><birthDate value="2005-01-01" /><careProvider><reference value="#99600119-ebaf-4362-bb89-d473a33b1675" /></careProvider></Patient></contained><contained><Organization><id value="99600119-ebaf-4362-bb89-d473a33b1675" /><meta><profile value="http://fhir.nhs.net/StructureDefinition/spine-gp-organization-1-0" /></meta><identifier><system value="http://fhir.nhs.net/Id/ods-organization-code" /><value value="B86022" /></identifier></Organization></contained><status value="active" /><period><start value="2015-02-04" /></period><subject><reference value="#20daadee-26e1-4d6a-9e6a-7f4af9b58877" /></subject><code><coding><system value="http://fhir.nhs.net/ValueSet/risk-indicator-type-1-0" /><code value="FGM" /></coding></code></Flag></resource></entry><entry><resource><Practitioner><id value="41fe704c-18e5-11e5-b60b-1697f925ec7b" /><meta><profile value="http://fhir.nhs.net/StructureDefinition/spine-practitioner-1-0" /></meta><identifier><system value="http://fhir.nhs.net/Id/sds-user-id" /><value value="200009876204" /></identifier><identifier><system value="http://fhir.nhs.net/Id/sds-role-profile-id" /><value value="100077650987" /></identifier><practitionerRole><managingOrganization><reference value="Organization/13daadee-26e1-4d6a-9e6a-7f4af9b58878" /></managingOrganization></practitionerRole></Practitioner></resource></entry><entry><resource><Organization><id value="13daadee-26e1-4d6a-9e6a-7f4af9b58878" /><meta><profile value="http://fhir.nhs.net/StructureDefinition/spine-organization-1-0" /></meta><identifier><system value="http://fhir.nhs.net/Id/ods-organization-code" /><value value="RKE" /></identifier><name value="THE WHITTINGTON HOSPITAL NHS TRUST" /></Organization></resource></entry></Bundle>