<Bundle xmlns="http://hl7.org/fhir"><id value="a06e1f82-7f2e-11e6-ae22-56b6b6499611" /><meta><profile value="http://fhir.nhs.net/StructureDefinition/gpconnect-searchset-bundle-1" /></meta><type value="searchset" /><entry><resource><Patient><id value="31686b67-9f20-4644-9a54-193d2f91de57" /><meta><profile value="http://fhir.nhs.net/StructureDefinition/gpconnect-patient-1" /></meta><identifier><system value="http://fhir.nhs.net/Id/nhs-number" /><value value="9900002831" /></identifier><name><use value="usual" /><family value="Taylor" /><given value="Sally" /><prefix value="Mrs" /></name><telecom><system value="phone" /><value value="0113-245-1919" /><use value="home" /></telecom><gender value="female" /><birthDate value="1947-06-09" /><address><use value="home" /><type value="both" /><line value="42, Grove Street" /><city value="Overtown" /><district value="West Yorkshire" /><postalCode value="LS21 1PF" /></address><maritalStatus><coding><system value="http://fhir.nhs.net/ValueSet/marital-status-1" /><code value="M" /><display value="Married/Civil Partner" /></coding></maritalStatus><contact><relationship><coding><system value="http://fhir.nhs.net/ValueSet/cda-person-relationship-type-1" /><code value="43" /><display value="Daughter" /></coding></relationship><name><use value="usual" /><family value="Taylor" /><given value="Ann" /><prefix value="Miss" /></name><telecom><system value="phone" /><value value="0113-245-0909" /><use value="home" /></telecom><address><use value="home" /><type value="both" /><line value="120, Grove Street" /><city value="Overtown" /><district value="West Yorkshire" /><postalCode value="LS21 1PT" /></address><gender value="female" /></contact></Patient></resource></entry><entry><resource><Composition><id value="0256d13a-5aea-11e6-8b77-86f30ca893d3" /><meta><profile value="http://fhir.nhs.net/StructureDefinition/gpconnect-carerecord-composition-2" /></meta><text><status value="generated" /><div xmlns="http://www.w3.org/1999/xhtml">
  <p style="font-size:20px">
    <b>Patient Care Record - Mrs Sally Taylor</b>
  </p>
  <p style="font-size:16px">
    <b>Record Id:</b> 31686b67-9f20-4644-9a54-193d2f91de57 <b>NHS Number:</b> 9900002831 <b>Date of Birth:</b> 1947-06-09 <b>Address:</b> 42 Grove Street, Overtown, West Yorkshire, LS21 1PF <b>Home Telephone:</b> 0113-245-1919 
			</p>
  <table width="100%" border="1">
    <thead>
      <tr>
        <td colspan="5">
          <b>Meta</b>
        </td>
      </tr>
    </thead>
    <tbody align="left">
      <tr style="bold">
        <td style="width:20%">
          <b>Id</b>
        </td>
        <td style="width:20%">
          <b>Date</b>
        </td>
        <td style="width:20%">
          <b>Type</b>
        </td>
        <td style="width:20%">
          <b>Status</b>
        </td>
        <td style="width:20%">
          <b>Confidentiality</b>
        </td>
      </tr>
      <tr>
        <td style="width:20%">767cec9e-8355-417f-8c8c-ba6dbffe195e</td>
        <td style="width:20%">11 July 2015 10:11:15 AM</td>
        <td style="width:20%">Care Record</td>
        <td style="width:20%">Final</td>
        <td style="width:20%">Very Restricted</td>
      </tr>
    </tbody>
  </table>
  <br />
  <table width="100%" border="1">
    <thead>
      <tr>
        <td colspan="2">
          <b>Author/Custodian</b>
        </td>
      </tr>
    </thead>
    <tbody align="left">
      <tr>
        <td style="width:50%">
          <b>Author</b>
        </td>
        <td style="width:50%">
          <b>Custodian</b>
        </td>
      </tr>
      <tr>
        <td style="width:50%">EMIS AA 1001-C 8.15-04</td>
        <td style="width:50%">Wood Town GP Practice</td>
      </tr>
    </tbody>
  </table>
  <br />
</div></text><date value="2015-07-11T10:11:15+00:00" /><type><coding><system value="http://snomed.info/sct" /><code value="425173008" /><display value="record extract" /></coding><text value="record extract" /></type><class><coding><system value="http://snomed.info/sct" /><code value="700232004" /><display value="general medical service" /></coding><text value="general medical service" /></class><title value="Patient Record" /><status value="final" /><confidentiality value="V" /><subject><reference value="Patient/31686b67-9f20-4644-9a54-193d2f91de57" /><display value="Sally Taylor" /></subject><author><reference value="Device/c4c8d038-913a-490c-9682-47047f4155fb" /><display value="EMIS AA 1001-C 8.15-04" /></author><custodian><reference value="Organization/79600119-ebaf-4362-bb89-d473a33b1675" /><display value="Wood Town GP practice" /></custodian><section><title value="Problems" /><code><coding><system value="http://fhir.nhs.net/ValueSet/gpconnect-record-section-1" /><code value="PRB" /><display value="Problems" /></coding><text value="Problems" /></code><text><status value="generated" /><div xmlns="http://www.w3.org/1999/xhtml">
  <table width="100%" border="1">
    <thead>
      <tr>
        <td colspan="2">
          <p>
            <b>Problems</b>: </p>
        </td>
      </tr>
    </thead>
    <tbody align="left">
      <tr>
        <td>Aphasia.</td>
      </tr>
      <tr>
        <td>Dysphagia.</td>
      </tr>
      <tr>
        <td>Lady previously admitted with a dense right sided weakness.</td>
      </tr>
      <tr>
        <td>Patients swallowing considered unsafe and on the advice of SALT team non oral feeding initiated.</td>
      </tr>
      <tr>
        <td>Patient will require ongoing rehab and physiotherapy.</td>
      </tr>
      <tr>
        <td>Background of metastatic breast cancer and atrial fibrillation.</td>
      </tr>
    </tbody>
  </table>
  <br />
</div></text><entry><reference value="Condition/4932db03-0cab-4777-a03b-e89be8599e86f" /></entry><entry><reference value="Condition/661872ea-1409-4d7f-9252-d947426c72ec" /></entry></section></Composition></resource></entry><entry><resource><Device><id value="c4c8d038-913a-490c-9682-47047f4155fb" /><meta><profile value="http://fhir.nhs.net/StructureDefinition/gpconnect-device-1" /></meta><identifier id="8cecc0f1-ded1-4956-9504-cf02cc6395e3" /><type><coding><system value="http://snomed.info/sct" /><code value="462240000" /><display value="Patient health record information system (physical object)" /></coding></type><note><text value="System generated EHR (Details)" /></note><manufacturer value="EMIS" /><model value="AA 1001-C" /><version value="8.15-04" /><owner><reference value="Organization/79600119-ebaf-4362-bb89-d473a33b1675" /><display value="Wood Town GP Practice" /></owner><location><reference value="Location/ad13fdcb-b69c-4ec7-a027-b220898db38f" /><display value="Wood Town GP Practice" /></location></Device></resource></entry><entry><resource><Organization><id value="79600119-ebaf-4362-bb89-d473a33b1675" /><meta><profile value="http://fhir.nhs.net/StructureDefinition/gpconnect-organization-1" /></meta><identifier><system value="http://fhir.nhs.net/Id/ods-organization-code" /><value value="B86022" /></identifier><type><coding><system value="http://fhir.nhs.net/ValueSet/organisation-type-1" /><code value="prov" /><display value="Healthcare Provider" /></coding></type><name value="Wood Town GP practice" /><telecom><system value="phone" /><value value="0113-333-3579" /><use value="work" /></telecom><address><use value="work" /><line value="13, Amber Street" /><city value="Leeds" /><postalCode value="LS20 1TV" /><country value="GBR" /></address></Organization></resource></entry><entry><resource><Location><id value="5f469508-03b3-4c32-919c-caf177221081" /><meta><profile value="http://fhir.nhs.net/StructureDefinition/gpconnect-location-1" /></meta><identifier><use value="official" /><system value="http://fhir.nhs.net/Id/ods-site-code" /><value value="RJZ46" /></identifier><name value="Haemotology Clinics" /><description value="Haematology Clinics of Kings College Hospital" /><type><coding><system value="http://hl7.org/fhir/ValueSet/v3-ServiceDeliveryLocationRoleType" /><code value="HEM" /><display value="Hematology clinic" /></coding></type><telecom><system value="phone" /><value value="02032999009" /><use value="work" /></telecom><telecom><system value="fax" /><value value="02032993445" /><use value="work" /></telecom><telecom><system value="email" /><value value="kch-tr.OutpatientAppointments@nhs.net" /></telecom><address><use value="work" /><line value="Denmark Hill" /><city value="London" /><postalCode value="SE59RS" /><country value="GBR" /></address><physicalType><coding><system value="http://snomed.info/sct" /><code value="310390009" /><display value="Hospital clinic" /></coding></physicalType><managingOrganization><reference value="Organization/1474506e-609d-412e-952b-4bc74d769038" /><display value="King's College Hospital" /></managingOrganization></Location></resource></entry><entry><resource><Location><id value="7335f1e2-49e5-478d-99c7-d6439c2245ec" /><meta><profile value="http://fhir.nhs.net/StructureDefinition/gpconnect-location-1" /></meta><identifier><use value="official" /><system value="http://fhir.nhs.net/Id/ods-site-code" /><value value="RGD03" /></identifier><name value="Leeds General Infirmary" /><description value="Leeds General Infirmary" /><type><coding><system value="http://hl7.org/fhir/ValueSet/v3-ServiceDeliveryLocationRoleType" /><code value="HOSP" /><display value="Hospital" /></coding></type><telecom><system value="phone" /><value value="01132432799" /><use value="work" /></telecom><address><use value="work" /><line value="Great George Street" /><city value="Leeds" /><postalCode value="LS1 3EX" /><country value="GBR" /></address><physicalType><coding><system value="http://snomed.info/sct" /><code value="22232009" /><display value="Hospital" /></coding></physicalType><managingOrganization><reference value="Organization/1474506e-609d-412e-952b-4bc74d769038" /><display value="King's College Hospital" /></managingOrganization></Location></resource></entry><entry><resource><Organization><id value="1474506e-609d-412e-952b-4bc74d769038" /><meta><profile value="http://fhir.nhs.net/StructureDefinition/gpconnect-organization-1" /></meta><identifier><system value="http://fhir.nhs.net/Id/ods-organization-code" /><value value="R1A02" /></identifier><type><coding><system value="http://fhir.nhs.net/ValueSet/organisation-type-1" /><code value="prov" /><display value="Healthcare Provider" /></coding></type><name value="King's College Hospital" /><telecom><system value="phone" /><value value="0113-333-1234" /><use value="work" /></telecom><address><use value="work" /><type value="both" /><line value="1, Main Street" /><city value="Leeds" /><district value="West Yorkshire" /><postalCode value="LS1 3PO" /></address></Organization></resource></entry><entry><resource><Condition><id value="4932db03-0cab-4777-a03b-e89be8599e86f" /><meta><profile value="http://fhir.nhs.net/StructureDefinition/careconnect-gpc-condition-1" /></meta><extension url="http://fhir.nhs.net/StructureDefinition/extension-careconnect-conditionepisode-1"><valueCode value="first" /></extension><patient><reference value="Patient/31686b67-9f20-4644-9a54-193d2f91de57" /><display value="Sally Taylor" /></patient><encounter><reference value="Encounter/58e57290-6035-4774-9ec0-9fd0c47a0587" /><display value="Medical consultation on hospital inpatient" /></encounter><asserter><reference value="Practitioner/f7737bf5-cfe7-491c-af3a-6f7177d5aee1" /><display value="Dr Tom Wood" /></asserter><dateRecorded value="2015-02-14" /><code><coding><extension url="http://fhir.nhs.net/StructureDefinition/extension-coding-sctdescid"><valueId value="145043012" /></extension><system value="http://snomed.info/sct" /><code value="87486003" /><display value="Aphasia" /></coding></code><category><coding><system value="http://fhir.nhs.net/ValueSet/gpconnect-condition-category-1" /><code value="PRB" /><display value="Problem" /></coding></category><verificationStatus value="confirmed" /></Condition></resource></entry><entry><resource><Condition><id value="661872ea-1409-4d7f-9252-d947426c72ec" /><meta><profile value="http://fhir.nhs.net/StructureDefinition/careconnect-gpc-condition-1" /></meta><patient><reference value="Patient/31686b67-9f20-4644-9a54-193d2f91de57" /><display value="Sally Taylor" /></patient><encounter><reference value="Encounter/58e57290-6035-4774-9ec0-9fd0c47a0587" /><display value="Medical consultation on hospital inpatient" /></encounter><asserter><reference value="Practitioner/f7737bf5-cfe7-491c-af3a-6f7177d5aee1" /><display value="Dr Tom Wood" /></asserter><dateRecorded value="2015-02-14" /><code><coding><extension url="http://fhir.nhs.net/StructureDefinition/extension-coding-sctdescid"><valueId value="67950018" /></extension><system value="http://snomed.info/sct" /><code value="40739000" /><display value="Dysphagia" /></coding></code><category><coding><system value="http://fhir.nhs.net/ValueSet/gpconnect-condition-category-1" /><code value="PRB" /><display value="Problem" /></coding></category><verificationStatus value="confirmed" /></Condition></resource></entry></Bundle>