{
  "resourceType": "Bundle",
  "id": "fa4e209c-7f33-11e6-ae22-56b6b6499611",
  "meta": {
    "profile": [
      "http://fhir.nhs.net/StructureDefinition/gpconnect-searchset-bundle-1"
    ]
  },
  "type": "searchset",
  "entry": [
    {
      "resource": {
        "resourceType": "Patient",
        "id": "31686b67-9f20-4644-9a54-193d2f91de57",
        "meta": {
          "profile": [
            "http://fhir.nhs.net/StructureDefinition/gpconnect-patient-1"
          ]
        },
        "identifier": [
          {
            "system": "http://fhir.nhs.net/Id/nhs-number",
            "value": "9900002831"
          }
        ],
        "name": [
          {
            "use": "usual",
            "family": [
              "Taylor"
            ],
            "given": [
              "Sally"
            ],
            "prefix": [
              "Mrs"
            ]
          }
        ],
        "telecom": [
          {
            "system": "phone",
            "value": "0113-245-1919",
            "use": "home"
          }
        ],
        "gender": "female",
        "birthDate": "1947-06-09",
        "address": [
          {
            "use": "home",
            "type": "both",
            "line": [
              "42, Grove Street"
            ],
            "city": "Overtown",
            "district": "West Yorkshire",
            "postalCode": "LS21 1PF"
          }
        ],
        "maritalStatus": {
          "coding": [
            {
              "system": "http://fhir.nhs.net/ValueSet/marital-status-1",
              "code": "M",
              "display": "Married/Civil Partner"
            }
          ]
        },
        "contact": [
          {
            "relationship": [
              {
                "coding": [
                  {
                    "system": "http://fhir.nhs.net/ValueSet/cda-person-relationship-type-1",
                    "code": "43",
                    "display": "Daughter"
                  }
                ]
              }
            ],
            "name": {
              "use": "usual",
              "family": [
                "Taylor"
              ],
              "given": [
                "Ann"
              ],
              "prefix": [
                "Miss"
              ]
            },
            "telecom": [
              {
                "system": "phone",
                "value": "0113-245-0909",
                "use": "home"
              }
            ],
            "address": {
              "use": "home",
              "type": "both",
              "line": [
                "120, Grove Street"
              ],
              "city": "Overtown",
              "district": "West Yorkshire",
              "postalCode": "LS21 1PT"
            },
            "gender": "female"
          }
        ]
      }
    },
    {
      "resource": {
        "resourceType": "Composition",
        "id": "0256d6da-5aea-11e6-8b77-86f30ca893d3",
        "meta": {
          "profile": [
            "http://fhir.nhs.net/StructureDefinition/gpconnect-carerecord-composition-2"
          ]
        },
        "text": {
          "status": "generated",
          "div": "<div xmlns=\"http://www.w3.org/1999/xhtml\"><p style=\"font-size:20px\"><b>Patient Care Record - Mrs Sally Taylor</b></p><p style=\"font-size:16px\"><b>Record Id:</b> 31686b67-9f20-4644-9a54-193d2f91de57 <b>NHS Number:</b> 9900002831 <b>Date of Birth:</b> 1947-06-09 <b>Address:</b> 42 Grove Street, Overtown, West Yorkshire, LS21 1PF <b>Home Telephone:</b> 0113-245-1919 \r\n\t\t\t</p><table width=\"100%\" border=\"1\"><thead><tr><td colspan=\"5\"><b>Meta</b></td></tr></thead><tbody align=\"left\"><tr style=\"bold\"><td style=\"width:20%\"><b>Id</b></td><td style=\"width:20%\"><b>Date</b></td><td style=\"width:20%\"><b>Type</b></td><td style=\"width:20%\"><b>Status</b></td><td style=\"width:20%\"><b>Confidentiality</b></td></tr><tr><td style=\"width:20%\">767cec9e-8355-417f-8c8c-ba6dbffe195e</td><td style=\"width:20%\">11 July 2015 10:11:15 AM</td><td style=\"width:20%\">Care Record</td><td style=\"width:20%\">Final</td><td style=\"width:20%\">Very Restricted</td></tr></tbody></table><br /><table width=\"100%\" border=\"1\"><thead><tr><td colspan=\"2\"><b>Author/Custodian</b></td></tr></thead><tbody align=\"left\"><tr><td style=\"width:50%\"><b>Author</b></td><td style=\"width:50%\"><b>Custodian</b></td></tr><tr><td style=\"width:50%\">EMIS AA 1001-C 8.15-04</td><td style=\"width:50%\">Wood Town GP Practice</td></tr></tbody></table><br /></div>"
        },
        "date": "2015-07-11T11:11:15+01:00",
        "type": {
          "coding": [
            {
              "system": "http://snomed.info/sct",
              "code": "425173008",
              "display": "record extract"
            }
          ],
          "text": "record extract"
        },
        "class": {
          "coding": [
            {
              "system": "http://snomed.info/sct",
              "code": "700232004",
              "display": "general medical service"
            }
          ],
          "text": "general medical service"
        },
        "title": "Patient Record",
        "status": "final",
        "confidentiality": "V",
        "subject": {
          "reference": "Patient/31686b67-9f20-4644-9a54-193d2f91de57",
          "display": "Sally Taylor"
        },
        "author": [
          {
            "reference": "Device/c4c8d038-913a-490c-9682-47047f4155fb",
            "display": "EMIS AA 1001-C 8.15-04"
          }
        ],
        "custodian": {
          "reference": "Organization/79600119-ebaf-4362-bb89-d473a33b1675",
          "display": "Wood Town GP practice"
        },
        "section": [
          {
            "title": "Immunisations/Vaccinations",
            "code": {
              "coding": [
                {
                  "system": "http://fhir.nhs.net/ValueSet/gpconnect-record-section-1",
                  "code": "IMM",
                  "display": "Immunisations"
                }
              ],
              "text": "Immunisations"
            },
            "text": {
              "status": "generated",
              "div": "<div xmlns=\"http://www.w3.org/1999/xhtml\"><table width=\"100%\" border=\"1\"><thead><tr><td colspan=\"4\"><p><b>Immunisations/Vaccinations</b>: </p></td></tr></thead><tbody align=\"left\"><tr><td style=\"width:40%\"><b>Vaccine</b></td><td style=\"width:20%\"><b>Date</b></td><td style=\"width:20%\"><b>Status</b></td><td style=\"width:20%\"><b>Dose Sequence</b></td></tr><tr><td style=\"width:40%\">Rabies vaccine 0.25iu/0.1mL powder for injection single dose syringe</td><td style=\"width:20%\">01-Mar-2016</td><td style=\"width:20%\">In progress</td><td style=\"width:20%\">1</td></tr><tr><td style=\"width:40%\">Rabies vaccine 0.25iu/0.1mL powder for injection single dose syringe</td><td style=\"width:20%\">08-Mar-2016</td><td style=\"width:20%\">In progress</td><td style=\"width:20%\">2</td></tr></tbody></table><br /></div>"
            },
            "entry": [
              {
                "reference": "Immunization/6de4af0d-ec73-47e8-bcd4-afba06aaaf36"
              },
              {
                "reference": "Immunization/1b06df4f-1e10-459c-9239-18d76d2f4ee1"
              }
            ]
          }
        ]
      }
    },
    {
      "resource": {
        "resourceType": "Device",
        "id": "c4c8d038-913a-490c-9682-47047f4155fb",
        "meta": {
          "profile": [
            "http://fhir.nhs.net/StructureDefinition/gpconnect-device-1"
          ]
        },
        "identifier": [
          {
            "id": "8cecc0f1-ded1-4956-9504-cf02cc6395e3"
          }
        ],
        "type": {
          "coding": [
            {
              "system": "http://snomed.info/sct",
              "code": "462240000",
              "display": "Patient health record information system (physical object)"
            }
          ]
        },
        "note": [
          {
            "text": "System generated EHR (Details)"
          }
        ],
        "manufacturer": "EMIS",
        "model": "AA 1001-C",
        "version": "8.15-04",
        "owner": {
          "reference": "Organization/79600119-ebaf-4362-bb89-d473a33b1675",
          "display": "Wood Town GP Practice"
        },
        "location": {
          "reference": "Location/ad13fdcb-b69c-4ec7-a027-b220898db38f",
          "display": "Wood Town GP Practice"
        }
      }
    },
    {
      "resource": {
        "resourceType": "Organization",
        "id": "79600119-ebaf-4362-bb89-d473a33b1675",
        "meta": {
          "profile": [
            "http://fhir.nhs.net/StructureDefinition/gpconnect-organization-1"
          ]
        },
        "identifier": [
          {
            "system": "http://fhir.nhs.net/Id/ods-organization-code",
            "value": "B86022"
          }
        ],
        "type": {
          "coding": [
            {
              "system": "http://fhir.nhs.net/ValueSet/organisation-type-1",
              "code": "prov",
              "display": "Healthcare Provider"
            }
          ]
        },
        "name": "Wood Town GP practice",
        "telecom": [
          {
            "system": "phone",
            "value": "0113-333-3579",
            "use": "work"
          }
        ],
        "address": [
          {
            "use": "work",
            "line": [
              "13, Amber Street"
            ],
            "city": "Leeds",
            "postalCode": "LS20 1TV",
            "country": "GBR"
          }
        ]
      }
    },
    {
      "resource": {
        "resourceType": "Location",
        "id": "5f469508-03b3-4c32-919c-caf177221081",
        "meta": {
          "profile": [
            "http://fhir.nhs.net/StructureDefinition/gpconnect-location-1"
          ]
        },
        "identifier": [
          {
            "use": "official",
            "system": "http://fhir.nhs.net/Id/ods-site-code",
            "value": "RJZ46"
          }
        ],
        "name": "Haemotology Clinics",
        "description": "Haematology Clinics of Kings College Hospital",
        "type": {
          "coding": [
            {
              "system": "http://hl7.org/fhir/ValueSet/v3-ServiceDeliveryLocationRoleType",
              "code": "HEM",
              "display": "Hematology clinic"
            }
          ]
        },
        "telecom": [
          {
            "system": "phone",
            "value": "02032999009",
            "use": "work"
          },
          {
            "system": "fax",
            "value": "02032993445",
            "use": "work"
          },
          {
            "system": "email",
            "value": "kch-tr.OutpatientAppointments@nhs.net"
          }
        ],
        "address": {
          "use": "work",
          "line": [
            "Denmark Hill"
          ],
          "city": "London",
          "postalCode": "SE59RS",
          "country": "GBR"
        },
        "physicalType": {
          "coding": [
            {
              "system": "http://snomed.info/sct",
              "code": "310390009",
              "display": "Hospital clinic"
            }
          ]
        },
        "managingOrganization": {
          "reference": "Organization/1474506e-609d-412e-952b-4bc74d769038",
          "display": "King's College Hospital"
        }
      }
    },
    {
      "resource": {
        "resourceType": "Location",
        "id": "7335f1e2-49e5-478d-99c7-d6439c2245ec",
        "meta": {
          "profile": [
            "http://fhir.nhs.net/StructureDefinition/gpconnect-location-1"
          ]
        },
        "identifier": [
          {
            "use": "official",
            "system": "http://fhir.nhs.net/Id/ods-site-code",
            "value": "RGD03"
          }
        ],
        "name": "Leeds General Infirmary",
        "description": "Leeds General Infirmary",
        "type": {
          "coding": [
            {
              "system": "http://hl7.org/fhir/ValueSet/v3-ServiceDeliveryLocationRoleType",
              "code": "HOSP",
              "display": "Hospital"
            }
          ]
        },
        "telecom": [
          {
            "system": "phone",
            "value": "01132432799",
            "use": "work"
          }
        ],
        "address": {
          "use": "work",
          "line": [
            "Great George Street"
          ],
          "city": "Leeds",
          "postalCode": "LS1 3EX",
          "country": "GBR"
        },
        "physicalType": {
          "coding": [
            {
              "system": "http://snomed.info/sct",
              "code": "22232009",
              "display": "Hospital"
            }
          ]
        },
        "managingOrganization": {
          "reference": "Organization/1474506e-609d-412e-952b-4bc74d769038",
          "display": "King's College Hospital"
        }
      }
    },
    {
      "resource": {
        "resourceType": "Organization",
        "id": "1474506e-609d-412e-952b-4bc74d769038",
        "meta": {
          "profile": [
            "http://fhir.nhs.net/StructureDefinition/gpconnect-organization-1"
          ]
        },
        "identifier": [
          {
            "system": "http://fhir.nhs.net/Id/ods-organization-code",
            "value": "R1A02"
          }
        ],
        "type": {
          "coding": [
            {
              "system": "http://fhir.nhs.net/ValueSet/organisation-type-1",
              "code": "prov",
              "display": "Healthcare Provider"
            }
          ]
        },
        "name": "King's College Hospital",
        "telecom": [
          {
            "system": "phone",
            "value": "0113-333-1234",
            "use": "work"
          }
        ],
        "address": [
          {
            "use": "work",
            "type": "both",
            "line": [
              "1, Main Street"
            ],
            "city": "Leeds",
            "district": "West Yorkshire",
            "postalCode": "LS1 3PO"
          }
        ]
      }
    },
    {
      "resource": {
        "resourceType": "Immunization",
        "id": "6de4af0d-ec73-47e8-bcd4-afba06aaaf36",
        "meta": {
          "profile": [
            "http://fhir.nhs.net/StructureDefinition/careconnect-gpc-immunization-1"
          ]
        },
        "extension": [
          {
            "url": "http://fhir.nhs.net/StructureDefinition/extension-careconnect-daterecorded-1",
            "valueDateTime": "2016-03-01T09:30:00+00:00"
          }
        ],
        "status": "in-progress",
        "date": "2016-03-01T09:30:00+00:00",
        "vaccineCode": {
          "coding": [
            {
              "extension": [
                {
                  "url": "http://fhir.nhs.net/StructureDefinition/extension-coding-sctdescid",
                  "valueId": "1779573011"
                }
              ],
              "system": "http://snomed.info/sct",
              "code": "400331004",
              "display": "Rabies vaccine 0.25iu/0.1mL powder for injection single dose syringe"
            }
          ]
        },
        "patient": {
          "reference": "Patient/31686b67-9f20-4644-9a54-193d2f91de57",
          "display": "Sally Taylor"
        },
        "wasNotGiven": false,
        "reported": false,
        "performer": {
          "reference": "Practitioner/be375c8e-667b-45fb-a8da-b41e7a67ce88",
          "display": "Nurse Jane Jones"
        },
        "requester": {
          "reference": "Practitioner/8ece9986-9af0-4882-b0cf-23a96ea7b509",
          "display": "Dr. Matt Smith"
        },
        "encounter": {
          "reference": "Encounter/5e00e999-422d-4900-b554-0362f4e66e0e",
          "display": "Immunisation Appointment"
        },
        "lotNumber": "63259874",
        "expirationDate": "2020-01-01",
        "site": {
          "coding": [
            {
              "extension": [
                {
                  "url": "http://fhir.nhs.net/StructureDefinition/extension-coding-sctdescid",
                  "valueId": "486112013"
                }
              ],
              "system": "http://snomed.info/sct",
              "code": "35259002",
              "display": "Structure of deltoid muscle"
            }
          ]
        },
        "route": {
          "coding": [
            {
              "extension": [
                {
                  "url": "http://fhir.nhs.net/StructureDefinition/extension-coding-sctdescid",
                  "valueId": "424996019"
                }
              ],
              "system": "http://snomed.info/sct",
              "code": "285837007",
              "display": "Injection into body site"
            }
          ]
        },
        "doseQuantity": {
          "value": 0.1,
          "unit": "mL",
          "system": "http://unitsofmeasure.org",
          "code": "mL"
        },
        "vaccinationProtocol": [
          {
            "doseSequence": 1,
            "targetDisease": [
              {
                "coding": [
                  {
                    "extension": [
                      {
                        "url": "http://fhir.nhs.net/StructureDefinition/extension-coding-sctdescid",
                        "valueId": "24109019"
                      }
                    ],
                    "system": "http://snomed.info/sct",
                    "code": "14168008",
                    "display": "Rabies"
                  }
                ]
              }
            ],
            "doseStatus": {
              "coding": [
                {
                  "system": "http://hl7.org/fhir/vaccination-protocol-dose-status",
                  "code": "count",
                  "display": "Counts"
                }
              ]
            }
          }
        ]
      }
    },
    {
      "resource": {
        "resourceType": "Immunization",
        "id": "1b06df4f-1e10-459c-9239-18d76d2f4ee1",
        "meta": {
          "profile": [
            "http://fhir.nhs.net/StructureDefinition/careconnect-gpc-immunization-1"
          ]
        },
        "extension": [
          {
            "url": "http://fhir.nhs.net/StructureDefinition/extension-careconnect-daterecorded-1",
            "valueDateTime": "2016-03-08T09:30:00+00:00"
          }
        ],
        "status": "in-progress",
        "date": "2016-03-08T09:30:00+00:00",
        "vaccineCode": {
          "coding": [
            {
              "extension": [
                {
                  "url": "http://fhir.nhs.net/StructureDefinition/extension-coding-sctdescid",
                  "valueId": "1779573011"
                }
              ],
              "system": "http://snomed.info/sct",
              "code": "400331004",
              "display": "Rabies vaccine 0.25iu/0.1mL powder for injection single dose syringe"
            }
          ]
        },
        "patient": {
          "reference": "Patient/31686b67-9f20-4644-9a54-193d2f91de57",
          "display": "Sally Taylor"
        },
        "wasNotGiven": false,
        "reported": false,
        "performer": {
          "reference": "Practitioner/be375c8e-667b-45fb-a8da-b41e7a67ce88",
          "display": "Nurse Jane Jones"
        },
        "requester": {
          "reference": "Practitioner/8ece9986-9af0-4882-b0cf-23a96ea7b509",
          "display": "Dr. Matt Smith"
        },
        "encounter": {
          "reference": "Encounter/86792a58-9266-40b1-b1aa-24616de510b3",
          "display": "Immunisation Appointment"
        },
        "lotNumber": "25987456",
        "expirationDate": "2020-02-13",
        "site": {
          "coding": [
            {
              "extension": [
                {
                  "url": "http://fhir.nhs.net/StructureDefinition/extension-coding-sctdescid",
                  "valueId": "486112013"
                }
              ],
              "system": "http://snomed.info/sct",
              "code": "35259002",
              "display": "Structure of deltoid muscle"
            }
          ]
        },
        "route": {
          "coding": [
            {
              "extension": [
                {
                  "url": "http://fhir.nhs.net/StructureDefinition/extension-coding-sctdescid",
                  "valueId": "424996019"
                }
              ],
              "system": "http://snomed.info/sct",
              "code": "285837007",
              "display": "Injection into body site"
            }
          ]
        },
        "doseQuantity": {
          "value": 0.1,
          "unit": "mL",
          "system": "http://unitsofmeasure.org",
          "code": "mL"
        },
        "vaccinationProtocol": [
          {
            "doseSequence": 2,
            "targetDisease": [
              {
                "coding": [
                  {
                    "extension": [
                      {
                        "url": "http://fhir.nhs.net/StructureDefinition/extension-coding-sctdescid",
                        "valueId": "24109019"
                      }
                    ],
                    "system": "http://snomed.info/sct",
                    "code": "14168008",
                    "display": "Rabies"
                  }
                ]
              }
            ],
            "doseStatus": {
              "coding": [
                {
                  "system": "http://hl7.org/fhir/vaccination-protocol-dose-status",
                  "code": "count",
                  "display": "Counts"
                }
              ]
            }
          }
        ]
      }
    }
  ]
}