<?xml version="1.0" encoding="UTF-8"?>
<!--Bundle xml example-->
<Bundle xmlns="http://hl7.org/fhir" xmlns:xsi="http://www.w3.org/2001/XMLSchema-instance" xsi:schemaLocation="http://hl7.org/fhir ../../Schemas/bundle.xsd">
	<id value="ea768d1e-cf8b-45ec-b94a-550c9f1ebd7d"/>
	<meta>
		<profile value="http://fhir.nhs.net/StructureDefinition/adw-message-bundle-1-0"/>
	</meta>
	<type value="message"/>
	<entry>
		<resource>
			<MessageHeader>
				<id value="3e0c4730-82f9-4dd3-9534-84b9a11ce30c"/>
				<meta>
					<profile value="http://fhir.nhs.net/StructureDefinition/adw-withdrawal-notice-message-header-1-0"/>
				</meta>
				<timestamp value="2016-07-26T12:00:00+00:00"/>
				<event>
					<system value="http://fhir.nhs.net/ValueSet/adw-message-event-1-0"/>
					<code value="975841000000102"/>
				</event>
				<source>
					<name value="Hospital Sending System"/>
					<endpoint value="urn:nhs-uk:addressing:ods:RFM8C2"/>
				</source>
				<destination>
					<name value="Local Authority Receiving System"/>
					<endpoint value="urn:nhs-uk:addressing:ods:V396BB"/>
				</destination>
				<author>
					<!-- Hospital Liaison -->
					<reference value="Practitioner/f9ca604c-a34a-4ac6-9e02-e7a118fceb49">
					</reference>
				</author>
				<!-- Local Authority Social Services' community team -->
				<receiver>
					<reference value="Organization/154c948f-e1d0-45c1-bcca-80d60f3fce0d"/>
				</receiver>
				<!-- Lead Clinician -->
				<responsible>
					<reference value="Practitioner/d2275977-5597-497b-9677-b48e81e18c39"/>
				</responsible>
				<reason>
					<coding>
						<system value="http://fhir.nhs.net/ValueSet/adw-withdrawal-reason-1-0"/>
						<code value="13"/>
						<display value="Other"/>
					</coding>
					<text value="Patient is no longer staying with relatives and has moved back to another Local Authority."/>
				</reason>
				<data>
					<reference value="ReferralRequest/2bf5f46e-f690-4196-822d-86937ff4f410"/>
				</data>
			</MessageHeader>
		</resource>
	</entry>
	<entry>
		<resource>
			<ReferralRequest>
				<id value="2bf5f46e-f690-4196-822d-86937ff4f410"/>
				<meta>
					<profile value="http://fhir.nhs.net/StructureDefinition/adw-referral-request-cancelled-1-0"/>
				</meta>
				<status value="cancelled"/>
				<identifier>
					<value value="311fcae7-32a7-4a8e-a15c-eebae3a246b9"/>
					<!--The value of this identifier will be the same across all referrals to tie all these together-->
				</identifier>
				<patient>
					<reference value="Patient/701c59ba-df6c-4f2c-b17a-ef55319a1989"/>
				</patient>
				<!-- Hospital Liaison, a hospital Discharge Co-ordinator -->
				<requester>
					<reference value="Practitioner/f9ca604c-a34a-4ac6-9e02-e7a118fceb49">
					</reference>
				</requester>
				<!-- Local Authority Social Services' team-->
				<recipient>
					<reference value="Organization/154c948f-e1d0-45c1-bcca-80d60f3fce0d"/>
				</recipient>
				<encounter>
					<reference value="Encounter/f592da3d-fa41-4852-867d-7f6b3c03696b"/>
				</encounter>
			</ReferralRequest>
		</resource>
	</entry>
	<entry>
		<resource>
			<Patient>
				<id value="701c59ba-df6c-4f2c-b17a-ef55319a1989"/>
				<!--Identifies the profile being used-->
				<meta>
					<profile value="http://fhir.nhs.net/StructureDefinition/adw-patient-1-0"/>
				</meta>
				<!--Primary patient identifier i.e. NHS number and code to indicate it's been verified-->
				<identifier>
					<use value="official"/>
					<type>
						<coding>
							<system value="http://fhir.nhs.net/ValueSet/nhs-number-status-indicator-1-0"/>
							<code value="01"/>
							<display value="Number present and verified"/>
						</coding>
					</type>
					<system value="http://fhir.nhs.net/Id/nhs-number"/>
					<value value="9413946000"/>
				</identifier>
				<identifier>
					<use value="secondary"/>
					<system value="http://fhir.nhs.net/Id/hospital-patient-identifier"/>
					<value value="A1234521"/>
					<assigner>
						<!-- This can be a reference to the profile elsewhere in the message or just text -->
						<reference value="Organization/622af5df-82cd-4a45-9af0-2c953169493b"/>
					</assigner>
				</identifier>
				<name>
					<use value="official"/>
					<family value="Jones"/>
					<given value="Barry"/>
				</name>
				<gender value="male"/>
				<birthDate value="1941-01-01"/>
				<address>
					<use value="home"/>
					<!--Is address postal, physical or both?-->
					<type value="both"/>
					<!-- Structured address-->
					<line value="The Old Lodge"/>
					<line value="1 Little Street"/>
					<line value="Chapeltown"/>
					<city value="Leeds"/>
					<district value="West Yorkshire"/>
					<postalCode value="LS6 1UR"/>
				</address>
			</Patient>
		</resource>
	</entry>
	<entry>
		<resource>
			<Practitioner>
				<id value="f9ca604c-a34a-4ac6-9e02-e7a118fceb49"/>
				<meta>
					<!--Identifies the profile being used-->
					<profile value="http://fhir.nhs.net/StructureDefinition/adw-practitioner-1-0"/>
				</meta>
				<identifier>
					<use value="official"/>
					<system value="http://fhir.nhs.net/Id/sds-user-identifier"/>
					<value value="055555750555"/>
				</identifier>
				<name>
					<family value="Gulliver"/>
					<given value="Leticia"/>
				</name>
				<telecom>
					<system value="email"/>
					<value value="leticia.gulliver@nhs.net"/>
					<use value="work"/>
				</telecom>
				<telecom>
					<system value="phone"/>
					<value value="0191223344"/>
					<use value="work"/>
					<rank value="1"/>
				</telecom>
				<practitionerRole>
					<managingOrganization>
						<reference value="Organization/622af5df-82cd-4a45-9af0-2c953169493b"/>
					</managingOrganization>
					<!-- Indicates the practitioner's role(s) i.e. Discharge co-ordinator-->
					<role>
						<coding>
							<system value="http://fhir.nhs.net/ValueSet/job-role-name-1-0"/>
							<code value="NR2060"/>
							<display value="Discharge coordinator"/>
						</coding>
						<text value="Hospital Liaison"/>
					</role>
				</practitionerRole>
			</Practitioner>
		</resource>
	</entry>
	<entry>
		<resource>
			<Practitioner>
				<id value="d2275977-5597-497b-9677-b48e81e18c39"/>
				<meta>
					<!--Identifies the profile being used-->
					<profile value="http://fhir.nhs.net/StructureDefinition/adw-lead-clinician-practitioner-1-0"/>
				</meta>
				<identifier>
					<use value="official"/>
					<system value="http://fhir.nhs.net/Id/sds-user-identifier"/>
					<value value="044445750555"/>
				</identifier>
				<identifier>
					<use value="official"/>
					<system value="http://www.gmc-uk.org"/>
					<value value="0000001"/>
					<assigner>
						<!-- This can be a reference to the profile elsewhere in the message or just text -->
						<reference value="General Medical Council"/>
					</assigner>
				</identifier>
				<name>
					<use value="official"/>
					<family value="Stibbs"/>
					<given value="Nigel"/>
					<prefix value="Dr"/>
				</name>
				<practitionerRole>
					<managingOrganization>
						<reference value="Organization/622af5df-82cd-4a45-9af0-2c953169493b"/>
					</managingOrganization>
					<!-- Indicates the practitioners role(s)-->
					<role>
						<coding>
							<system value="http://fhir.nhs.net/ValueSet/job-role-name-1-0"/>
							<code value="NR0050"/>
							<display value="Consultant"/>
						</coding>
						<text value="Lead Clinician"/>
					</role>
				</practitionerRole>
			</Practitioner>
		</resource>
	</entry>
	<entry>
		<resource>
			<Organization>
				<id value="622af5df-82cd-4a45-9af0-2c953169493b"/>
				<meta>
					<!--Identifies the profile being used-->
					<profile value="http://fhir.nhs.net/StructureDefinition/adw-organization-1-0"/>
				</meta>
				<!--Organisation identifier -->
				<identifier>
					<use value="official"/>
					<system value="http://fhir.nhs.net/Id/ods-organization-code"/>
					<value value="RFM8C2"/>
				</identifier>
				<!-- Type of organisation. -->
				<type>
					<coding>
						<system value="http://hl7.org/fhir/ValueSet/organization-type"/>
						<code value="prov"/>
						<display value="Healthcare Provider"/>
					</coding>
					<text value="Hospital"/>
				</type>
				<name value="Hebburn Hospital"/>
			</Organization>
		</resource>
	</entry>
	<entry>
		<resource>
			<Organization>
				<id value="ea1aee53-430d-49cc-8250-501b9ce270df"/>
				<meta>
					<!--Identifies the profile being used-->
					<profile value="http://fhir.nhs.net/StructureDefinition/adw-organization-1-0"/>
				</meta>
				<!--Organisation identifier -->
				<identifier>
					<system value="http://fhir.nhs.net/Id/ods-organization-code"/>
					<value value="V396BB"/>
				</identifier>
				<!-- Type of organisation. -->
				<type>
					<coding>
						<system value="http://hl7.org/fhir/ValueSet/organization-type"/>
						<code value="govt"/>
						<display value="Government"/>
					</coding>
					<text value="Local Authority"/>
				</type>
				<name value="Hebburn Council"/>
				<telecom>
					<system value="phone"/>
					<value value="0191223377"/>
					<use value="work"/>
				</telecom>
			</Organization>
		</resource>
	</entry>
	<entry>
		<resource>
			<Organization>
				<id value="154c948f-e1d0-45c1-bcca-80d60f3fce0d"/>
				<meta>
					<!--Identifies the profile being used-->
					<profile value="http://fhir.nhs.net/StructureDefinition/adw-social-services-team-organization-1-0"/>
				</meta>
				<!-- Type of organisation. -->
				<type>
					<coding>
						<system value="http://hl7.org/fhir/ValueSet/organization-type"/>
						<code value="team"/>
						<display value="Organizational team"/>
					</coding>
					<text value="Local Authority Social Services' Team"/>
				</type>
				<name value="Hebburn Social Services' Community Team"/>
				<partOf>
					<reference value="Organization/ea1aee53-430d-49cc-8250-501b9ce270df"/>
				</partOf>
			</Organization>
		</resource>
	</entry>
	<entry>
		<resource>
			<Encounter>
				<id value="f592da3d-fa41-4852-867d-7f6b3c03696b"/>
				<meta>
					<profile value="http://fhir.nhs.net/StructureDefinition/adw-withdrawal-encounter-1-0"/>
				</meta>
				<identifier>
					<value value="2562b8b6-c0db-424a-8c6b-0fa43b0d6c2f"/>
				</identifier>
				<status value="in-progress"/>
				<class value="inpatient"/>
				<patient>
					<reference value="Patient/701c59ba-df6c-4f2c-b17a-ef55319a1989"/>
				</patient>
				<location>
					<location>
						<reference value="Location/40636a92-34a5-473d-a297-4dab0c517d97"/>
					</location>
				</location>
				<serviceProvider>
					<reference value="Organization/622af5df-82cd-4a45-9af0-2c953169493b"/>
				</serviceProvider>
			</Encounter>
		</resource>
	</entry>
	<entry>
		<resource>
			<Location>
				<id value="40636a92-34a5-473d-a297-4dab0c517d97"/>
				<meta>
					<!--Identifies the profile being used-->
					<profile value="http://fhir.nhs.net/StructureDefinition/adw-location-1-0"/>
				</meta>
				<identifier>
					<use value="official"/>
					<system value="http://fhir.nhs.net/Id/ods-organization-code"/>
					<value value="RFM7C7"/>
				</identifier>
				<name value="Collier Ward"/>
				<managingOrganization>
					<reference value="Organization/622af5df-82cd-4a45-9af0-2c953169493b"/>
				</managingOrganization>
			</Location>
		</resource>
	</entry>
</Bundle>
