{"resourceType":"Bundle","id":"320d7908-d1ae-48aa-b055-94561076b945","meta":{"profile":["http://fhir.nhs.net/StructureDefinition/gpconnect-searchset-bundle-1"]},"type":"searchset","entry":[{"resource":{"resourceType":"Patient","id":"31686b67-9f20-4644-9a54-193d2f91de57","meta":{"profile":["http://fhir.nhs.net/StructureDefinition/gpconnect-patient-1"]},"identifier":[{"system":"http://fhir.nhs.net/Id/nhs-number","value":"9900002831"}],"name":[{"use":"usual","family":["Taylor"],"given":["Sally"],"prefix":["Mrs"]}],"telecom":[{"system":"phone","value":"0113-245-1919","use":"home"}],"gender":"female","birthDate":"1947-06-09","address":[{"use":"home","type":"both","line":["42, Grove Street"],"city":"Overtown","district":"West Yorkshire","postalCode":"LS21 1PF"}],"maritalStatus":{"coding":[{"system":"http://fhir.nhs.net/ValueSet/marital-status-1","code":"M","display":"Married/Civil Partner"}]},"contact":[{"relationship":[{"coding":[{"system":"http://fhir.nhs.net/ValueSet/cda-person-relationship-type-1","code":"43","display":"Daughter"}]}],"name":{"use":"usual","family":["Taylor"],"given":["Ann"],"prefix":["Miss"]},"telecom":[{"system":"phone","value":"0113-245-0909","use":"home"}],"address":{"use":"home","type":"both","line":["120, Grove Street"],"city":"Overtown","district":"West Yorkshire","postalCode":"LS21 1PT"},"gender":"female"}]}},{"resource":{"resourceType":"Composition","id":"0256d428-5aea-11e6-8b77-86f30ca893d3","meta":{"profile":["http://fhir.nhs.net/StructureDefinition/gpconnect-carerecord-composition-1"]},"text":{"status":"generated","div":"<div xmlns=\"http://www.w3.org/1999/xhtml\"><p style=\"font-size:20px\"><b>Patient Care Record - Mrs Sally Taylor</b></p><p style=\"font-size:16px\"><b>Record Id:</b> 31686b67-9f20-4644-9a54-193d2f91de57 <b>NHS Number:</b> 9900002831 <b>Date of Birth:</b> 1947-06-09 <b>Address:</b> 42 Grove Street, Overtown, West Yorkshire, LS21 1PF <b>Home Telephone:</b> 0113-245-1919 \r\n\t\t\t</p><table width=\"100%\" border=\"1\"><thead><tr><td colspan=\"5\"><b>Meta</b></td></tr></thead><tbody align=\"left\"><tr style=\"bold\"><td style=\"width:20%\"><b>Id</b></td><td style=\"width:20%\"><b>Date</b></td><td style=\"width:20%\"><b>Type</b></td><td style=\"width:20%\"><b>Status</b></td><td style=\"width:20%\"><b>Confidentiality</b></td></tr><tr><td style=\"width:20%\">767cec9e-8355-417f-8c8c-ba6dbffe195e</td><td style=\"width:20%\">11 July 2015 10:11:15 AM</td><td style=\"width:20%\">Care Record</td><td style=\"width:20%\">Final</td><td style=\"width:20%\">Very Restricted</td></tr></tbody></table><br /><table width=\"100%\" border=\"1\"><thead><tr><td colspan=\"2\"><b>Author/Custodian</b></td></tr></thead><tbody align=\"left\"><tr><td style=\"width:50%\"><b>Author</b></td><td style=\"width:50%\"><b>Custodian</b></td></tr><tr><td style=\"width:50%\">EMIS AA 1001-C 8.15-04</td><td style=\"width:50%\">Wood Town GP Practice</td></tr></tbody></table><br /></div>"},"date":"2015-07-11T10:11:15+00:00","type":{"coding":[{"system":"http://snomed.info/sct","code":"425173008","display":"record extract"}],"text":"record extract"},"class":{"coding":[{"system":"http://snomed.info/sct","code":"700232004","display":"general medical service"}],"text":"general medical service"},"title":"Patient Record","status":"final","confidentiality":"V","subject":{"reference":"Patient/31686b67-9f20-4644-9a54-193d2f91de57","display":"Sally Taylor"},"author":[{"reference":"Device/c4c8d038-913a-490c-9682-47047f4155fb","display":"EMIS AA 1001-C 8.15-04"}],"custodian":{"reference":"Organization/79600119-ebaf-4362-bb89-d473a33b1675","display":"Wood Town GP practice"},"section":[{"title":"Medications","code":{"coding":[{"system":"http://fhir.nhs.net/ValueSet/gpconnect-record-section-1","code":"MED","display":"Medications"}],"text":"Medications"},"text":{"status":"generated","div":"<div xmlns=\"http://www.w3.org/1999/xhtml\"><table width=\"100%\" border=\"1\"><thead><tr><td colspan=\"6\"><p><b>Medications</b>: </p></td></tr></thead><tbody align=\"left\"><tr><td style=\"width:20%\"><b>Name</b></td><td style=\"width:10%\"><b>Dose</b></td><td style=\"width:20%\"><b>Medication Frequency</b></td><td style=\"width:10%\"><b>Route</b></td><td style=\"width:20%\"><b>Medication Recommendations</b></td><td style=\"width:20%\"><b>Date Prescribed</b></td></tr><tr><td style=\"width:20%\">Naproxen 250mg tablets</td><td style=\"width:10%\">250mg</td><td style=\"width:20%\">One daily</td><td style=\"width:10%\">oral</td><td style=\"width:20%\">continue</td><td style=\"width:20%\">1-Feb-2015</td></tr><tr><td style=\"width:20%\">Aspirin 75mg e/c tablet</td><td style=\"width:10%\">75mg</td><td style=\"width:20%\">One daily</td><td style=\"width:10%\">oral</td><td style=\"width:20%\">continue</td><td style=\"width:20%\">14-Feb-2015</td></tr><tr><td style=\"width:20%\">Naproxen 250mg tablets</td><td style=\"width:10%\">250mg</td><td style=\"width:20%\">One tablet three times daily</td><td style=\"width:10%\">oral</td><td style=\"width:20%\">continue</td><td style=\"width:20%\">1-Sep-2014</td></tr></tbody></table><br /></div>"}}]}},{"resource":{"resourceType":"Device","id":"c4c8d038-913a-490c-9682-47047f4155fb","meta":{"profile":["http://fhir.nhs.net/StructureDefinition/gpconnect-device-1"]},"identifier":[{"id":"8cecc0f1-ded1-4956-9504-cf02cc6395e3"}],"type":{"coding":[{"system":"http://snomed.info/sct","code":"462240000","display":"Patient health record information system (physical object)"}]},"note":[{"text":"System generated EHR (Details)"}],"manufacturer":"EMIS","model":"AA 1001-C","version":"8.15-04","owner":{"reference":"Organization/79600119-ebaf-4362-bb89-d473a33b1675","display":"Wood Town GP Practice"},"location":{"reference":"Location/ad13fdcb-b69c-4ec7-a027-b220898db38f","display":"Wood Town GP Practice"}}},{"resource":{"resourceType":"Organization","id":"79600119-ebaf-4362-bb89-d473a33b1675","meta":{"profile":["http://fhir.nhs.net/StructureDefinition/gpconnect-organization-1"]},"identifier":[{"system":"http://fhir.nhs.net/Id/ods-organization-code","value":"B86022"}],"type":{"coding":[{"system":"http://fhir.nhs.net/ValueSet/organisation-type-1","code":"prov","display":"Healthcare Provider"}]},"name":"Wood Town GP practice","telecom":[{"system":"phone","value":"0113-333-3579","use":"work"}],"address":[{"use":"work","line":["13, Amber Street"],"city":"Leeds","postalCode":"LS20 1TV","country":"GBR"}]}},{"resource":{"resourceType":"Location","id":"5f469508-03b3-4c32-919c-caf177221081","meta":{"profile":["http://fhir.nhs.net/StructureDefinition/gpconnect-location-1"]},"identifier":[{"use":"official","system":"http://fhir.nhs.net/Id/ods-site-code","value":"RJZ46"}],"name":"Haemotology Clinics","description":"Haematology Clinics of Kings College Hospital","type":{"coding":[{"system":"http://hl7.org/fhir/ValueSet/v3-ServiceDeliveryLocationRoleType","code":"HEM","display":"Hematology clinic"}]},"telecom":[{"system":"phone","value":"02032999009","use":"work"},{"system":"fax","value":"02032993445","use":"work"},{"system":"email","value":"kch-tr.OutpatientAppointments@nhs.net"}],"address":{"use":"work","line":["Denmark Hill"],"city":"London","postalCode":"SE59RS","country":"GBR"},"physicalType":{"coding":[{"system":"http://snomed.info/sct","code":"310390009","display":"Hospital clinic"}]},"managingOrganization":{"reference":"Organization/1474506e-609d-412e-952b-4bc74d769038","display":"King's College Hospital"}}},{"resource":{"resourceType":"Location","id":"7335f1e2-49e5-478d-99c7-d6439c2245ec","meta":{"profile":["http://fhir.nhs.net/StructureDefinition/gpconnect-location-1"]},"identifier":[{"use":"official","system":"http://fhir.nhs.net/Id/ods-site-code","value":"RGD03"}],"name":"Leeds General Infirmary","description":"Leeds General Infirmary","type":{"coding":[{"system":"http://hl7.org/fhir/ValueSet/v3-ServiceDeliveryLocationRoleType","code":"HOSP","display":"Hospital"}]},"telecom":[{"system":"phone","value":"01132432799","use":"work"}],"address":{"use":"work","line":["Great George Street"],"city":"Leeds","postalCode":"LS1 3EX","country":"GBR"},"physicalType":{"coding":[{"system":"http://snomed.info/sct","code":"22232009","display":"Hospital"}]},"managingOrganization":{"reference":"Organization/1474506e-609d-412e-952b-4bc74d769038","display":"King's College Hospital"}}},{"resource":{"resourceType":"Organization","id":"1474506e-609d-412e-952b-4bc74d769038","meta":{"profile":["http://fhir.nhs.net/StructureDefinition/gpconnect-organization-1"]},"identifier":[{"system":"http://fhir.nhs.net/Id/ods-organization-code","value":"R1A02"}],"type":{"coding":[{"system":"http://fhir.nhs.net/ValueSet/organisation-type-1","code":"prov","display":"Healthcare Provider"}]},"name":"King's College Hospital","telecom":[{"system":"phone","value":"0113-333-1234","use":"work"}],"address":[{"use":"work","type":"both","line":["1, Main Street"],"city":"Leeds","district":"West Yorkshire","postalCode":"LS1 3PO"}]}}]}