{
  "resourceType": "Bundle",
  "id": "9b505659-5e12-4533-a383-ab5a7a603c26",
  "meta": {
    "profile": [
      "http://fhir.nhs.net/StructureDefinition/gpconnect-getschedule-bundle-1"
    ]
  },
  "type": "searchset",
  "entry": [
    {
      "resource": {
        "resourceType": "Schedule",
        "id": "b57e1f37-e88e-43ad-a9e9-79eeed7531dd",
        "meta": {
          "profile": [
            "http://fhir.nhs.net/StructureDefinition/gpconnect-schedule-1"
          ]
        },
        "extension": [
          {
            "url": "http://fhir.nhs.net/StructureDefinition/extension-gpconnect-practitioner-1",
            "valueReference": {
              "reference": "Practitioner/97f9f119-1809-4300-aabb-ca23ab280181",
              "display": "Dr. Bob Jones"
            }
          }
        ],
        "identifier": [
          {
            "system": "http://fhir.nhs.net/Id/gpconnect-schedule-identifier",
            "value": "Schedule001"
          }
        ],
        "type": [
          {
            "text": "General Practice"
          }
        ],
        "actor": {
          "reference": "Location/328cce0d-e1ff-454f-9652-2586355bae46",
          "display": "Out of Hours GP Clinic - Bridge Street Medical Practice"
        },
        "planningHorizon": {
          "start": "2014-12-11T18:00:00+00:00",
          "end": "2014-12-11T21:00:00+00:00"
        },
        "comment": "This schedule is for out of hours GP appointments at Bridge Street Medical Practice."
      }
    },
    {
      "resource": {
        "resourceType": "Schedule",
        "id": "a2aea64f-f6d7-4ce7-85e0-f7dc80c21f86",
        "meta": {
          "profile": [
            "http://fhir.nhs.net/StructureDefinition/gpconnect-schedule-1"
          ]
        },
        "extension": [
          {
            "url": "http://fhir.nhs.net/StructureDefinition/extension-gpconnect-practitioner-1",
            "valueReference": {
              "reference": "Practitioner/0fe255f4-2961-498b-8af8-7fb79b63ce60"
            }
          }
        ],
        "identifier": [
          {
            "system": "http://fhir.nhs.net/Id/gpconnect-schedule-identifier",
            "value": "Schedule002"
          }
        ],
        "type": [
          {
            "text": "Medical specialty--OTHER--NOT LISTED"
          }
        ],
        "actor": {
          "reference": "Location/bc028c12-891d-4256-89c2-78bc1cfe7ea7",
          "display": "Antenatal Clinic"
        },
        "planningHorizon": {
          "start": "2015-09-01T09:00:00+01:00",
          "end": "2015-09-01T18:00:00+01:00"
        },
        "comment": "This schedule is for Antenatal Clinic appointments at Charles Street Surgery."
      }
    },
    {
      "resource": {
        "resourceType": "Slot",
        "id": "79a37bc3-8d22-4805-b1a7-8cf8ceca9217",
        "meta": {
          "profile": [
            "http://fhir.nhs.net/StructureDefinition/gpconnect-slot-1"
          ]
        },
        "identifier": [
          {
            "system": "http://fhir.nhs.net/Id/gpconnect-slot-identifier",
            "value": "Slot001"
          }
        ],
        "schedule": {
          "reference": "b57e1f37-e88e-43ad-a9e9-79eeed7531dd",
          "display": "Appointment Schedule - Out of Hours GP Clinic"
        },
        "freeBusyType": "free",
        "start": "2014-12-11T19:30:00+00:00",
        "end": "2014-12-11T19:45:00+00:00",
        "overbooked": false,
        "comment": "This slot is only to be used for Out of Hours GP Clinic appointments."
      }
    },
    {
      "resource": {
        "resourceType": "Slot",
        "id": "3e604e21-40d3-46c9-91be-b2859cd1a99b",
        "meta": {
          "profile": [
            "http://fhir.nhs.net/StructureDefinition/gpconnect-slot-1"
          ]
        },
        "identifier": [
          {
            "system": "http://fhir.nhs.net/Id/gpconnect-slot-identifier",
            "value": "Slot001"
          }
        ],
        "schedule": {
          "reference": "Schedule/a2aea64f-f6d7-4ce7-85e0-f7dc80c21f86",
          "display": "Appointment Schedule - Antenatal Clinic"
        },
        "freeBusyType": "free",
        "start": "2015-09-01T12:30:00+01:00",
        "end": "2015-09-01T12:45:00+01:00",
        "overbooked": false,
        "comment": "This slot is only to be used for Antenatal Clinic appointments."
      }
    },
    {
      "resource": {
        "resourceType": "Practitioner",
        "id": "97f9f119-1809-4300-aabb-ca23ab280181",
        "meta": {
          "profile": [
            "http://fhir.nhs.net/StructureDefinition/gpconnect-practitioner-1"
          ]
        },
        "identifier": [
          {
            "system": "http://fhir.nhs.net/Id/sds-user-id",
            "value": "D132435467"
          },
          {
            "system": "http://fhir.nhs.net/Id/sds-role-profile-id",
            "value": "PT2468"
          }
        ],
        "name": {
          "family": [
            "Jones"
          ],
          "given": [
            "Bob"
          ],
          "prefix": [
            "Dr."
          ]
        },
        "gender": "male",
        "practitionerRole": [
          {
            "managingOrganization": {
              "reference": "Organization/79600119-ebaf-4362-bb89-d473a33b1675",
              "display": "Wood Town GP Practice"
            },
            "role": {
              "coding": [
                {
                  "system": "http://fhir.nhs.net/ValueSet/sds-job-role-name-1",
                  "code": "R8000",
                  "display": "General Medical Practitioner"
                }
              ]
            }
          }
        ],
        "communication": [
          {
            "coding": [
              {
                "system": "http://fhir.nhs.net/ValueSet/human-language-1",
                "code": "en",
                "display": "English"
              }
            ]
          }
        ]
      }
    },
    {
      "resource": {
        "resourceType": "Location",
        "id": "328cce0d-e1ff-454f-9652-2586355bae46",
        "meta": {
          "profile": [
            "http://fhir.nhs.net/StructureDefinition/gpconnect-location-1"
          ]
        },
        "identifier": [
          {
            "use": "official",
            "system": "http://fhir.nhs.net/Id/ods-site-code",
            "value": "B86022001"
          }
        ],
        "name": "Out of Hours GP Clinic",
        "description": "Out of Hours GP Clinic - Bridge Street Medical Practice",
        "type": {
          "coding": [
            {
              "system": "http://hl7.org/fhir/ValueSet/v3-ServiceDeliveryLocationRoleType",
              "code": "PC",
              "display": "Primary care clinic"
            }
          ]
        },
        "telecom": [
          {
            "system": "phone",
            "value": "01132341111",
            "use": "work"
          },
          {
            "system": "fax",
            "value": "01132341111",
            "use": "work"
          },
          {
            "system": "email",
            "value": "bridge-gp.OutpatientAppointments@nhs.net"
          }
        ],
        "address": {
          "use": "work",
          "line": [
            "3 Bridge Street"
          ],
          "city": "Leeds",
          "postalCode": "LS21 1BQ",
          "country": "GBR"
        },
        "physicalType": {
          "coding": [
            {
              "system": "http://snomed.info/sct",
              "code": "264358009",
              "display": "General practice premises"
            }
          ]
        },
        "managingOrganization": {
          "reference": "Organization/79600119-ebaf-4362-bb89-d473a33b1675",
          "display": "Wood Town GP practice"
        }
      }
    },
    {
      "resource": {
        "resourceType": "Location",
        "id": "bc028c12-891d-4256-89c2-78bc1cfe7ea7",
        "meta": {
          "profile": [
            "http://fhir.nhs.net/StructureDefinition/gpconnect-location-1"
          ]
        },
        "identifier": [
          {
            "use": "official",
            "system": "http://fhir.nhs.net/Id/ods-site-code",
            "value": "B86022002"
          }
        ],
        "name": "Antenatal Clinic",
        "description": "Antenatal Clinic - Charles Street Surgery",
        "type": {
          "coding": [
            {
              "system": "http://hl7.org/fhir/ValueSet/v3-ServiceDeliveryLocationRoleType",
              "code": "PC",
              "display": "Primary care clinic"
            }
          ]
        },
        "telecom": [
          {
            "system": "phone",
            "value": "01132341112",
            "use": "work"
          },
          {
            "system": "fax",
            "value": "01132341112",
            "use": "work"
          },
          {
            "system": "email",
            "value": "bridge-gp.OutpatientAppointments@nhs.net"
          }
        ],
        "address": {
          "use": "work",
          "line": [
            "13 Charles Street"
          ],
          "city": "Leeds",
          "postalCode": "LS21 1SJ",
          "country": "GBR"
        },
        "physicalType": {
          "coding": [
            {
              "system": "http://snomed.info/sct",
              "code": "394574007",
              "display": "Antenatal clinic"
            }
          ]
        },
        "managingOrganization": {
          "reference": "Organization/79600119-ebaf-4362-bb89-d473a33b1675",
          "display": "Wood Town GP practice"
        }
      }
    },
    {
      "resource": {
        "resourceType": "Organization",
        "id": "79600119-ebaf-4362-bb89-d473a33b1675",
        "meta": {
          "profile": [
            "http://fhir.nhs.net/StructureDefinition/gpconnect-organization-1"
          ]
        },
        "identifier": [
          {
            "system": "http://fhir.nhs.net/Id/ods-organization-code",
            "value": "B86022"
          }
        ],
        "name": "Wood Town GP practice"
      }
    }
  ]
}