<?xml version="1.0" encoding="UTF-8"?>
<!--A Bundle xml example-->
<Bundle xmlns="http://hl7.org/fhir" xmlns:xsi="http://www.w3.org/2001/XMLSchema-instance" xsi:schemaLocation="http://hl7.org/fhir ../../Schemas/bundle.xsd">
	<id value="6130a4ff-39d9-41b6-9b4f-424b4d7122cc"/>
	<meta>
		<profile value="http://fhir.nhs.net/StructureDefinition/adw-message-bundle-1-0"/>
	</meta>
	<type value="message"/>
	<entry>
		<resource>
			<MessageHeader>
				<id value="236103d8-ea79-42d5-8078-2e9b0ed4d517"/>
				<meta>
					<profile value="http://fhir.nhs.net/StructureDefinition/adw-withdrawal-notice-accept-response-message-header-1-0"/>
				</meta>
				<timestamp value="2016-07-25T13:30:00+00:00"/>
				<event>
					<system value="http://fhir.nhs.net/ValueSet/adw-message-event-1-0"/>
					<code value="1025651000000109"/>
				</event>
				<response>
					<!-- id of the message header this is the response to -->
					<identifier value="3e0c4730-82f9-4dd3-9534-84b9a11ce30c"/>
					<code value="ok"/>
				</response>
				<source>
					<name value="Local Authority Sending System"/>
					<endpoint value="urn:nhs-uk:addressing:ods:V396BB"/>
				</source>
				<destination>
					<name value="Hospital Receiving System"/>
					<endpoint value="urn:nhs-uk:addressing:ods:RFM8C2"/>
				</destination>
				<author>
					<!-- The local authority social worker -->
					<reference value="Practitioner/cfdb60ff-2672-45e1-9d9a-2727b7171a21">
					</reference>
				</author>
				<receiver>
					<!-- The hospital liaison -->
					<reference value="Practitioner/09de888f-9dfe-4e41-9103-052d5d568a53"/>
				</receiver>
				<responsible>
					<reference value="Organization/bb02f3ef-cc78-4fb4-8d2a-e803e2244c52"/>
				</responsible>
				<reason>
					<coding>
						<system value="http://fhir.nhs.net/ValueSet/adw-assessment-notice-accept-reason-1-0"/>
						<code value="OFT"/>
						<display value="Other - Free Text"/>
					</coding>
					<text value="Patient from Leeds."/>
				</reason>
				<data>
					<reference value="ReferralRequest/3939c26a-019d-48e4-ab80-1cdffe692b36"/>
				</data>
			</MessageHeader>
		</resource>
	</entry>
	<entry>
		<resource>
			<ReferralRequest>
				<id value="3939c26a-019d-48e4-ab80-1cdffe692b36"/>
				<meta>
					<profile value="http://fhir.nhs.net/StructureDefinition/adw-referral-request-cancelled-1-0"/>
				</meta>
				<status value="cancelled"/>
				<identifier>
					<value value="311fcae7-32a7-4a8e-a15c-eebae3a246b9"/>
				</identifier>
				<patient>
					<reference value="Patient/edeecbf0-cb99-4276-9dda-ea294d56ad2a"/>
				</patient>
				<requester>
					<reference value="Practitioner/09de888f-9dfe-4e41-9103-052d5d568a53"/>
				</requester>
				<recipient>
					<reference value="Organization/dd610ecc-e33d-41f4-99b5-97c3949c7a21"/>
				</recipient>
				<encounter>
					<reference value="Encounter/74a1ee63-1d87-4fc0-b3f1-9e5c6bc6cdb9"/>
				</encounter>
			</ReferralRequest>
		</resource>
	</entry>
	<entry>
		<resource>
			<Patient>
				<id value="edeecbf0-cb99-4276-9dda-ea294d56ad2a"/>
				<!--Identifies the profile being used-->
				<meta>
					<profile value="http://fhir.nhs.net/StructureDefinition/adw-patient-1-0"/>
				</meta>
				<!--Primary patient identifier i.e. NHS number -->
				<identifier>
					<use value="official"/>
					<system value="http://fhir.nhs.net/Id/nhs-number"/>
					<value value="9413946000"/>
				</identifier>
				<identifier>
					<system value="http://fhir.nhs.net/Id/hospital-patient-identifier"/>
					<value value="A1234521"/>
					<assigner>
						<!-- This can be a reference to the profile elsewhere in the message or just text -->
						<reference value="Organization/481f35f3-4d00-4a00-b5bd-5b58e0d590a5"/>
					</assigner>
				</identifier>
				<name>
					<family value="Jones"/>
					<given value="Barry"/>
				</name>
				<gender value="male"/>
				<birthDate value="1941-01-01"/>
			</Patient>
		</resource>
	</entry>
	<entry>
		<resource>
			<Practitioner>
				<id value="09de888f-9dfe-4e41-9103-052d5d568a53"/>
				<meta>
					<!--Identifies the profile being used-->
					<profile value="http://fhir.nhs.net/StructureDefinition/adw-practitioner-1-0"/>
				</meta>
				<identifier>
					<use value="official"/>
					<system value="http://fhir.nhs.net/Id/sds-user-identifier"/>
					<value value="055555750555"/>
				</identifier>
				<name>
					<family value="Gulliver"/>
					<given value="Leticia"/>
				</name>
				<telecom>
					<system value="email"/>
					<value value="leticia.gulliver@nhs.net"/>
					<use value="work"/>
				</telecom>
				<telecom>
					<system value="phone"/>
					<value value="0191223344"/>
					<use value="work"/>
				</telecom>
				<practitionerRole>
					<managingOrganization>
						<reference value="Organization/481f35f3-4d00-4a00-b5bd-5b58e0d590a5"/>
					</managingOrganization>
					<!-- Indicates the practitioner's role(s) i.e. Discharge co-ordinator-->
					<role>
						<coding>
							<system value="http://fhir.nhs.net/ValueSet/job-role-name-1-0"/>
							<code value="NR2060"/>
							<display value="Discharge coordinator"/>
						</coding>
						<text value="Hospital Liaison"/>
					</role>
				</practitionerRole>
			</Practitioner>
		</resource>
	</entry>
	<entry>
		<resource>
			<Practitioner>
				<id value="cfdb60ff-2672-45e1-9d9a-2727b7171a21"/>
				<meta>
					<!--Identifies the profile being used-->
					<profile value="http://fhir.nhs.net/StructureDefinition/adw-practitioner-1-0"/>
				</meta>
				<identifier>
					<use value="official"/>
					<system value="http://www.hpc-uk.org"/>
					<value value="SW7777777"/>
					<assigner>
						<!-- This can be a reference to the profile elsewhere in the message or just text -->
						<reference value="Health and Care Professions' Council"/>
					</assigner>
				</identifier>
				<name>
					<family value="Jones"/>
					<given value="Lee"/>
				</name>
				<telecom>
					<system value="email"/>
					<value value="lee.jones@nhs.net"/>
					<use value="work"/>
					<rank value="2"/>
					<period>
						<start value="2015-10-02"/>
					</period>
				</telecom>
				<telecom>
					<system value="phone"/>
					<value value="0191223888"/>
					<use value="work"/>
					<rank value="1"/>
				</telecom>
				<practitionerRole>
					<managingOrganization>
						<reference value="Organization/dd610ecc-e33d-41f4-99b5-97c3949c7a21"/>
					</managingOrganization>
					<!-- Indicates the practitioners role(s) i.e. Discharge co-ordinator-->
					<role>
						<coding>
							<system value="http://fhir.nhs.net/ValueSet/job-role-name-1-0"/>
							<code value="NR1340"/>
							<display value="Approved Social Worker"/>
						</coding>
						<text value="Local Authority Contact (Social Worker)"/>
					</role>
				</practitionerRole>
			</Practitioner>
		</resource>
	</entry>
	<entry>
		<resource>
			<Organization>
				<id value="481f35f3-4d00-4a00-b5bd-5b58e0d590a5"/>
				<meta>
					<!--Identifies the profile being used-->
					<profile value="http://fhir.nhs.net/StructureDefinition/adw-organization-1-0"/>
				</meta>
				<!--Organisation identifier -->
				<identifier>
					<use value="official"/>
					<system value="http://fhir.nhs.net/Id/ods-organization-code"/>
					<value value="RFM8C2"/>
				</identifier>
				<!-- Type of organisation. -->
				<type>
					<coding>
						<system value="http://hl7.org/fhir/ValueSet/organization-type"/>
						<code value="prov"/>
						<display value="Healthcare Provider"/>
					</coding>
					<text value="Hospital"/>
				</type>
				<name value="Hebburn Hospital"/>
			</Organization>
		</resource>
	</entry>
	<entry>
		<resource>
			<Organization>
				<id value="bb02f3ef-cc78-4fb4-8d2a-e803e2244c52"/>
				<meta>
					<!--Identifies the profile being used-->
					<profile value="http://fhir.nhs.net/StructureDefinition/adw-organization-1-0"/>
				</meta>
				<!--Organisation identifier-->
				<identifier>
					<use value="official"/>
					<system value="http://fhir.nhs.net/Id/ods-organization-code"/>
					<value value="V396BB"/>
				</identifier>
				<!-- Type of organisation. -->
				<type>
					<coding>
						<system value="http://hl7.org/fhir/ValueSet/organization-type"/>
						<code value="govt"/>
						<display value="Government"/>
					</coding>
					<text value="Local Authority"/>
				</type>
				<name value="Hebburn Council"/>
			</Organization>
		</resource>
	</entry>
	<entry>
		<resource>
			<Organization>
				<id value="dd610ecc-e33d-41f4-99b5-97c3949c7a21"/>
				<meta>
					<!--Identifies the profile being used-->
					<profile value="http://fhir.nhs.net/StructureDefinition/adw-social-services-team-organization-1-0"/>
				</meta>
				<!-- Type of organisation. -->
				<type>
					<coding>
						<system value="http://hl7.org/fhir/ValueSet/organization-type"/>
						<code value="team"/>
						<display value="Organizational team"/>
					</coding>
					<text value="Local Authority Social Services' Team"/>
				</type>
				<name value="Hebburn Social Services' Community Team"/>
				<partOf>
					<reference value="Organization/bb02f3ef-cc78-4fb4-8d2a-e803e2244c52"/>
				</partOf>
			</Organization>
		</resource>
	</entry>
	<entry>
		<resource>
			<Encounter>
				<id value="74a1ee63-1d87-4fc0-b3f1-9e5c6bc6cdb9"/>
				<meta>
					<profile value="http://fhir.nhs.net/StructureDefinition/adw-response-encounter-1-0"/>
				</meta>
				<identifier>
					<value value="2562b8b6-c0db-424a-8c6b-0fa43b0d6c2f"/>
				</identifier>
				<status value="in-progress"/>
				<class value="inpatient"/>
				<patient>
					<reference value="Patient/edeecbf0-cb99-4276-9dda-ea294d56ad2a"/>
				</patient>
				<location>
					<location>
						<reference value="Location/49c73ac5-02b0-4e48-abf8-0d118974522f"/>
						<display value="Collier Ward"/>
					</location>
				</location>
				<serviceProvider>
					<reference value="Organization/481f35f3-4d00-4a00-b5bd-5b58e0d590a5"/>
				</serviceProvider>
			</Encounter>
		</resource>
	</entry>
	<entry>
		<resource>
			<Location>
				<id value="49c73ac5-02b0-4e48-abf8-0d118974522f"/>
				<meta>
					<!--Identifies the profile being used-->
					<profile value="http://fhir.nhs.net/StructureDefinition/adw-location-1-0"/>
				</meta>
				<identifier>
					<use value="official"/>
					<system value="http://fhir.nhs.net/Id/ods-organization-code"/>
					<value value="RFM7C7"/>
				</identifier>
				<name value="Collier Ward"/>
				<managingOrganization>
					<reference value="Organization/481f35f3-4d00-4a00-b5bd-5b58e0d590a5"/>
				</managingOrganization>
			</Location>
		</resource>
	</entry>
</Bundle>
