<?xml version="1.0" encoding="UTF-8"?>
<Bundle xmlns="http://hl7.org/fhir" xmlns:xsi="http://www.w3.org/2001/XMLSchema-instance" xsi:schemaLocation="http://hl7.org/fhir ../../Schemas/bundle.xsd">
	<id value="79aec4c6-e7d3-44ef-96ed-bda1b94f9d00"/>
	<meta>
		<profile value="http://fhir.nhs.net/StructureDefinition/adw-message-bundle-1-0"/>
	</meta>
	<type value="message"/>
	<entry>
		<resource>
			<MessageHeader>
				<id value="5bfa2a2e-923b-440d-82d6-38e24b666be6"/>
				<meta>
					<profile value="http://fhir.nhs.net/StructureDefinition/adw-assessment-notice-message-header-1-0"/>
				</meta>
				<timestamp value="2016-07-25T12:00:00+00:00"/>
				<event>
					<system value="http://fhir.nhs.net/ValueSet/adw-message-event-1-0"/>
					<code value="975701000000106"/>
				</event>
				<source>
					<name value="Hospital Sending System"/>
					<endpoint value="urn:nhs-uk:addressing:ods:RFM8C2"/>
				</source>
				<destination>
					<name value="Local Authority Receiving System"/>
					<endpoint value="urn:nhs-uk:addressing:ods:V396BB"/>
				</destination>
				<author>
					<!-- Hospital Liaison -->
					<reference value="Practitioner/5b5d3bab-c1bb-434a-ab0d-82c4860bb098">
					</reference>
				</author>
				<!-- Local Authority Social Services' team -->
				<receiver>
					<reference value="Organization/ac831651-0ed4-4b25-97d9-2f204a51c182"/>
				</receiver>
				<!-- Lead Clinician -->
				<responsible>
					<reference value="Practitioner/88563c7f-b040-486a-9018-296bf9b94f32"/>
				</responsible>
				<data>
					<reference value="ReferralRequest/37c1099d-638c-4970-bcc6-539403f6ca8e"/>
				</data>
			</MessageHeader>
		</resource>
	</entry>
	<entry>
		<resource>
			<ReferralRequest>
				<id value="37c1099d-638c-4970-bcc6-539403f6ca8e"/>
				<meta>
					<!--This is taken from the url value of http://fhir.nhs.net/StructureDefinition/adw-referral-request-1-0 found in the profile-->
					<profile value="http://fhir.nhs.net/StructureDefinition/adw-referral-request-1-0"/>
				</meta>
				<status value="requested"/>
				<identifier>
					<value value="311fcae7-32a7-4a8e-a15c-eebae3a246b9"/>
					<!--The value of this identifier will be the same across all referrals to tie all these together-->
				</identifier>
				<patient>
					<reference value="Patient/bc3027a7-924c-44b5-8f1b-bfd5266c6905"/>
				</patient>
				<!-- Hospital Liaison, a hospital Discharge Co-ordinator -->
				<requester>
					<reference value="Practitioner/5b5d3bab-c1bb-434a-ab0d-82c4860bb098"/>
				</requester>
				<!-- Local Authority Social Services' team -->
				<recipient>
					<reference value="Organization/ac831651-0ed4-4b25-97d9-2f204a51c182"/>
				</recipient>
				<encounter>
					<reference value="Encounter/fd60ffd5-3e41-4b68-aa62-37f5407d8c03"/>
				</encounter>
				<supportingInformation>
					<reference value="QuestionnaireResponse/9c7eb664-d257-4250-aee2-20ad202919e8"/>
				</supportingInformation>
			</ReferralRequest>
		</resource>
	</entry>
	<entry>
		<resource>
			<Patient>
				<id value="bc3027a7-924c-44b5-8f1b-bfd5266c6905"/>
				<!--Identifies the profile being used-->
				<meta>
					<profile value="http://fhir.nhs.net/StructureDefinition/adw-patient-1-0"/>
				</meta>
				<!--Primary patient identifier i.e. NHS number and code to indicate it's been verified-->
				<identifier>
					<type>
						<coding>
							<system value="http://fhir.nhs.net/ValueSet/nhs-number-status-indicator-1-0"/>
							<code value="01"/>
							<display value="Number present and verified"/>
						</coding>
					</type>
					<system value="http://fhir.nhs.net/Id/nhs-number"/>
					<value value="9413946000"/>
				</identifier>
				<identifier>
					<system value="http://fhir.nhs.net/Id/hospital-patient-identifier"/>
					<value value="A1234521"/>
					<assigner>
						<!-- This can be a reference to the profile elsewhere in the message or just text -->
						<reference value="Organization/1ebc76fd-9612-4c72-81dd-de294a0e7287"/>
					</assigner>
				</identifier>
				<name>
					<family value="Jones"/>
					<given value="Barry"/>
				</name>
				<telecom>
					<system value="email"/>
					<value value="barryJ@googlemail.com"/>
				</telecom>
				<telecom>
					<system value="phone"/>
					<value value="0113554466"/>
				</telecom>
				<gender value="male"/>
				<birthDate value="1941-01-01"/>
				<address>
					<!-- Structured address-->
					<line value="The Old Lodge"/>
					<line value="1 Little Street"/>
					<line value="Chapeltown"/>
					<city value="Leeds"/>
					<district value="West Yorkshire"/>
					<postalCode value="LS6 1UR"/>
				</address>
				<!-- Patient's Carer contact -->
				<contact>
					<relationship>
						<coding>
							<system value="http://hl7.org/fhir/ValueSet/patient-contact-relationship"/>
							<code value="caregiver"/>
							<display value="Caregiver"/>
						</coding>
					</relationship>
					<name>
						<family value="Bloom"/>
						<given value="Sandra"/>
					</name>
					<telecom>
						<system value="email"/>
						<value value="Sbloom123@yahoo.com"/>
					</telecom>
					<telecom>
						<system value="phone"/>
						<value value="0113237656"/>
					</telecom>
				</contact>
				<communication>
					<extension url="http://fhir.nhs.net/StructureDefinition/extension-interpreter-required-1-0">
						<valueBoolean value="false"/>
					</extension>
					<!--The patient's preferred language-->
					<language>
						<coding>
							<system value="http://fhir.nhs.net/ValueSet/human-language-1-0"/>
							<code value="ga"/>
							<display value="Irish"/>
						</coding>
					</language>
					<preferred value="true"/>
				</communication>
			</Patient>
		</resource>
	</entry>
	<entry>
		<resource>
			<Practitioner>
				<id value="5b5d3bab-c1bb-434a-ab0d-82c4860bb098"/>
				<meta>
					<!--Identifies the profile being used-->
					<profile value="http://fhir.nhs.net/StructureDefinition/adw-practitioner-1-0"/>
				</meta>
				<name>
					<family value="Gulliver"/>
					<given value="Leticia"/>
				</name>
				<telecom>
					<system value="email"/>
					<value value="leticia.gulliver@nhs.net"/>
				</telecom>
				<telecom>
					<system value="phone"/>
					<value value="0191223344"/>
				</telecom>
				<practitionerRole>
					<managingOrganization>
						<reference value="Organization/1ebc76fd-9612-4c72-81dd-de294a0e7287"/>
					</managingOrganization>
					<!-- Indicates the practitioner's role(s) i.e. Discharge co-ordinator-->
					<role>
						<coding>
							<system value="http://fhir.nhs.net/ValueSet/job-role-name-1-0"/>
							<code value="NR2060"/>
							<display value="Discharge coordinator"/>
						</coding>
						<text value="Hospital Liaison"/>
					</role>
				</practitionerRole>
			</Practitioner>
		</resource>
	</entry>
	<entry>
		<resource>
			<Practitioner>
				<id value="88563c7f-b040-486a-9018-296bf9b94f32"/>
				<meta>
					<!--Identifies the profile being used-->
					<profile value="http://fhir.nhs.net/StructureDefinition/adw-lead-clinician-practitioner-1-0"/>
				</meta>
				<name>
					<family value="Stibbs"/>
					<given value="Nigel"/>
				</name>
				<practitionerRole>
					<managingOrganization>
						<reference value="Organization/1ebc76fd-9612-4c72-81dd-de294a0e7287"/>
					</managingOrganization>
					<!-- Indicates the practitioners role(s)-->
					<role>
						<coding>
							<system value="http://fhir.nhs.net/ValueSet/job-role-name-1-0"/>
							<code value="NR0050"/>
							<display value="Consultant"/>
						</coding>
						<text value="Lead Clinician"/>
					</role>
				</practitionerRole>
			</Practitioner>
		</resource>
	</entry>
	<entry>
		<resource>
			<Organization>
				<id value="1ebc76fd-9612-4c72-81dd-de294a0e7287"/>
				<meta>
					<!--Identifies the profile being used-->
					<profile value="http://fhir.nhs.net/StructureDefinition/adw-organization-1-0"/>
				</meta>
				<!--Organisation identifier -->
				<identifier>
					<system value="http://fhir.nhs.net/Id/ods-organization-code"/>
					<value value="RFM8C2"/>
				</identifier>
				<!-- Type of organisation. -->
				<type>
					<coding>
						<system value="http://hl7.org/fhir/ValueSet/organization-type"/>
						<code value="prov"/>
						<display value="Healthcare Provider"/>
					</coding>
					<text value="Hospital"/>
				</type>
				<name value="Hebburn Hospital"/>
			</Organization>
		</resource>
	</entry>
	<entry>
		<resource>
			<Organization>
				<id value="dab4b872-e000-42ec-bd4e-0d804fc3b92e"/>
				<meta>
					<!--Identifies the profile being used-->
					<profile value="http://fhir.nhs.net/StructureDefinition/adw-organization-1-0"/>
				</meta>
				<!--Organisation identifier -->
				<identifier>
					<system value="http://fhir.nhs.net/Id/ods-organization-code"/>
					<value value="V396BB"/>
				</identifier>
				<!-- Type of organisation. -->
				<type>
					<coding>
						<system value="http://hl7.org/fhir/ValueSet/organization-type"/>
						<code value="govt"/>
						<display value="Government"/>
					</coding>
					<text value="Local Authority"/>
				</type>
				<name value="Hebburn Council"/>
			</Organization>
		</resource>
	</entry>
	<entry>
		<resource>
			<Organization>
				<id value="ac831651-0ed4-4b25-97d9-2f204a51c182"/>
				<meta>
					<!--Identifies the profile being used-->
					<profile value="http://fhir.nhs.net/StructureDefinition/adw-social-services-team-organization-1-0"/>
				</meta>
				<!-- Type of organisation. -->
				<type>
					<coding>
						<system value="http://hl7.org/fhir/ValueSet/organization-type"/>
						<code value="team"/>
						<display value="Organizational team"/>
					</coding>
					<text value="Local Authority Social Services' Team"/>
				</type>
				<name value="Hebburn Social Services' Community Team"/>
				<partOf>
					<reference value="Organization/dab4b872-e000-42ec-bd4e-0d804fc3b92e"/>
				</partOf>
			</Organization>
		</resource>
	</entry>
	<entry>
		<resource>
			<QuestionnaireResponse>
				<id value="9c7eb664-d257-4250-aee2-20ad202919e8"/>
				<meta>
					<!--Identifies the profile being used-->
					<profile value="http://fhir.nhs.net/StructureDefinition/adw-questionnaire-response-1-0"/>
				</meta>
				<identifier>
					<value value="fd60ffd5-3e41-4b68-aa62-37f5407d8c04"/>
				</identifier>
				<status value="completed">
				</status>
				<author>
					<reference value="Practitioner/5b5d3bab-c1bb-434a-ab0d-82c4860bb098"/>
				</author>
				<group>
					<question>
						<text value="Has the patient been consulted regarding this Assessment Notice?"/>
						<answer>
							<valueCoding>
								<system value="http://fhir.nhs.net/ValueSet/adw-consultation-status-1-0"/>
								<code value="Y"/>
								<display value="Yes"/>
							</valueCoding>
						</answer>
					</question>
					<question>
						<text value="Has the patient's carer (if applicable) been consulted regarding the Assessment Notice?"/>
						<answer>
							<valueCoding>
								<system value="http://fhir.nhs.net/ValueSet/adw-carerconsultation-status-1-0"/>
								<code value="Y"/>
								<display value="Yes"/>
							</valueCoding>
						</answer>
					</question>
					<question>
						<text value="Are there any safeguarding issues associated with the patient?"/>
						<answer>
							<valueCoding>
								<system value="http://fhir.nhs.net/ValueSet/adw-consultation-status-1-0"/>
								<code value="N"/>
								<display value="No"/>
							</valueCoding>
						</answer>
					</question>
					<question>
						<text value="Has the patient consented to this Assessment Notice?"/>
						<answer>
							<valueCoding>
								<system value="http://fhir.nhs.net/ValueSet/adw-patient-consent-status-1-0"/>
								<code value="Y"/>
								<display value="Yes"/>
							</valueCoding>
						</answer>
					</question>
					<question>
						<text value="What is the source of the third party consent for this assessment notice?"/>
						<answer>
							<valueCoding>
								<system value="http://fhir.nhs.net/ValueSet/adw-third-party-consent-source-1-0"/>
								<code value="B"/>
								<display value="Best Interest Decision"/>
							</valueCoding>
						</answer>
					</question>
					<question>
						<text value="Has the provision of NHS Continuing Health Care been considered?"/>
						<answer>
							<valueCoding>
								<system value="http://fhir.nhs.net/ValueSet/adw-consultation-status-1-0"/>
								<code value="Y"/>
								<display value="Yes"/>
							</valueCoding>
						</answer>
					</question>
					<question>
						<text value="If the provision of NHS Continuing Health Care has been considered, what was the result of that consideration?"/>
						<answer>
							<valueString value="Ongoing care/support requires timely assessment by NHS"/>
						</answer>
					</question>
				</group>
			</QuestionnaireResponse>
		</resource>
	</entry>
	<entry>
		<resource>
			<Encounter>
				<id value="fd60ffd5-3e41-4b68-aa62-37f5407d8c03"/>
				<meta>
					<!--Identifies the profile being used-->
					<profile value="http://fhir.nhs.net/StructureDefinition/adw-encounter-1-0"/>
				</meta>
				<identifier>
					<value value="2562b8b6-c0db-424a-8c6b-0fa43b0d6c2f"/>
				</identifier>
				<status value="in-progress"/>
				<class value="inpatient"/>
				<priority>
					<coding>
						<system value="http://fhir.nhs.net/ValueSet/adw-admission-type-1-0"/>
						<code value="P"/>
						<display value="Elective"/>
					</coding>
				</priority>
				<patient>
					<reference value="Patient/bc3027a7-924c-44b5-8f1b-bfd5266c6905"/>
				</patient>
				<period>
					<start value="2016-07-14"/>
					<end value="2016-07-18"/>
				</period>
				<hospitalization>
					<admittingDiagnosis>
						<reference value="Condition/af7ba23c-8ad3-11e6-ae22-56b6b6499611"/>
					</admittingDiagnosis>
				</hospitalization>
				<location>
					<location>
						<reference value="Location/ce114cdd-cfeb-4533-b3c4-3c0dd450b25c"/>
					</location>
				</location>
				<serviceProvider>
					<reference value="Organization/1ebc76fd-9612-4c72-81dd-de294a0e7287"/>
				</serviceProvider>
			</Encounter>
		</resource>
	</entry>
	<entry>
		<resource>
			<Location>
				<id value="ce114cdd-cfeb-4533-b3c4-3c0dd450b25c"/>
				<meta>
					<!--Identifies the profile being used-->
					<profile value="http://fhir.nhs.net/StructureDefinition/adw-location-1-0"/>
				</meta>
				<name value="Collier Ward"/>
				<managingOrganization>
					<reference value="Organization/1ebc76fd-9612-4c72-81dd-de294a0e7287"/>
				</managingOrganization>
			</Location>
		</resource>
	</entry>
	<entry>
		<resource>
			<Condition>
				<id value="af7ba23c-8ad3-11e6-ae22-56b6b6499611"/>
				<meta>
					<!--Identifies the profile being used-->
					<profile value="http://fhir.nhs.net/StructureDefinition/adw-condition-1-0"/>
				</meta>
				<!--Reference to patient-->
				<patient>
					<reference value="Patient/bc3027a7-924c-44b5-8f1b-bfd5266c6905"/>
				</patient>
				<!-- Identification of the condition, problem or diagnosis which was the reason for admission -->
				<code>
					<text value="Chest pain, shortness of breath, nausea"/>
				</code>
				<verificationStatus value="confirmed"/>
			</Condition>
		</resource>
	</entry>
</Bundle>
